pic_index,trial_num,pic_name,rt,resp,feedback_code,feedback,segment,segment_index,pic_type,trial_target
1,1,beaver,0.0373291700962,space,0,wrong,target,NaN,targetNaN,beaver
2,1,trophy,5.73354366914,right,0,wrong,path,1,path1,beaver
3,1,astronaut,3.1668930614,right,0,wrong,path,2,path2,beaver
4,1,robot,0.733600418753,right,0,wrong,path,3,path3,beaver
5,1,watch,6.18358167328,right,0,wrong,decision,1,decision1,beaver
6,1,clover,1.18360793503,left,0,wrong,arm1,1,arm11,beaver
7,1,radio,0.700254286552,right,0,wrong,arm1,2,arm12,beaver
8,1,wing,4.51688029271,left,0,wrong,arm1,3,arm13,beaver
9,1,stepladder,3.30026521388,left,0,wrong,decision,2,decision2,beaver
10,1,calc,1.91690347556,right,0,wrong,arm2,1,arm21,beaver
11,1,tongue,3.50022005566,right,0,wrong,arm2,2,arm22,beaver
12,1,beaver,5.15024127642,left,0,wrong,arm2,3,arm23,beaver
13,2,arc,3.65021048672,space,1,correct,target,NaN,targetNaN,arc
14,2,trophy,4.7668725953,right,1,correct,path,1,path1,arc
15,2,astronaut,3.11688518286,right,1,correct,path,2,path2,arc
16,2,robot,0.550484514912,right,1,correct,path,3,path3,arc
17,2,watch,13.4167486216,left,1,correct,decision,1,decision1,arc
18,2,clover,1.86689499329,left,1,correct,arm1,1,arm11,arc
19,2,radio,2.88349304727,right,1,correct,arm1,2,arm12,arc
20,2,wing,2.80024861157,left,1,correct,arm1,3,arm13,arc
21,2,holly,1.53404584283,left,1,correct,decision,2,decision2,arc
22,2,match,2.80030566306,right,1,correct,arm2,1,arm21,arc
23,2,baby,1.00024752491,left,1,correct,arm2,2,arm22,arc
24,2,arc,1.21691301433,left,1,correct,arm2,3,arm23,arc
25,3,beaver,1.71694621886,space,-1,miss,target,NaN,targetNaN,beaver
26,3,trophy,0.850251660362,right,-1,miss,path,1,path1,beaver
27,3,astronaut,1.18357623977,right,-1,miss,path,2,path2,beaver
28,3,robot,0.266932363505,right,-1,miss,path,3,path3,beaver
29,3,pigeon,14.0167855088,right,-1,miss,decision,1,decision1,beaver
30,3,bus,1.83395305116,right,-1,miss,arm1,1,arm11,beaver
31,3,deer,0.800242876285,left,-1,miss,arm1,2,arm12,beaver
32,3,fist,1.50024390258,left,-1,miss,arm1,3,arm13,beaver
33,3,holly,3.40012913555,right,-1,miss,decision,2,decision2,beaver
34,3,match,2.70052173419,right,-1,miss,arm2,1,arm21,beaver
35,3,baby,1.18356899515,left,-1,miss,arm2,2,arm22,beaver
36,3,arc,0.916906192288,left,-1,miss,arm2,3,arm23,beaver
37,4,beaver,0.767071218957,space,1,correct,target,NaN,targetNaN,beaver
38,4,trophy,0.600274148921,right,1,correct,path,1,path1,beaver
39,4,astronaut,0.266867161845,right,1,correct,path,2,path2,beaver
40,4,robot,0.700227722904,right,1,correct,path,3,path3,beaver
41,4,pigeon,1.50031604705,right,1,correct,decision,1,decision1,beaver
42,4,bus,1.38357998285,right,1,correct,arm1,1,arm11,beaver
43,4,deer,0.683867232467,left,1,correct,arm1,2,arm12,beaver
44,4,fist,3.8333357482,left,1,correct,arm1,3,arm13,beaver
45,4,stepladder,5.53351517359,right,1,correct,decision,2,decision2,beaver
46,4,calc,1.05021253935,right,1,correct,arm2,1,arm21,beaver
47,4,tongue,0.950253230054,right,1,correct,arm2,2,arm22,beaver
48,4,beaver,1.66692566223,left,1,correct,arm2,3,arm23,beaver
49,5,arc,1.10026026337,space,1,correct,target,NaN,targetNaN,arc
50,5,trophy,1.10026780987,right,1,correct,path,1,path1,arc
51,5,astronaut,0.200957619498,right,1,correct,path,2,path2,arc
52,5,robot,0.233573251375,right,1,correct,path,3,path3,arc
53,5,watch,1.13358918956,right,1,correct,decision,1,decision1,arc
54,5,clover,1.15057392573,left,1,correct,arm1,1,arm11,arc
55,5,radio,0.133571983548,right,1,correct,arm1,2,arm12,arc
56,5,wing,0.850189175428,left,1,correct,arm1,3,arm13,arc
57,5,holly,4.53360090172,left,1,correct,decision,2,decision2,arc
58,5,match,0.8836693333,right,1,correct,arm2,1,arm21,arc
59,5,baby,0.516901121067,left,1,correct,arm2,2,arm22,arc
60,5,arc,0.966931578674,left,1,correct,arm2,3,arm23,arc
61,6,beaver,4.41692309643,space,1,correct,target,NaN,targetNaN,beaver
62,6,trophy,0.516954248335,right,1,correct,path,1,path1,beaver
63,6,astronaut,0.150231013191,right,1,correct,path,2,path2,beaver
64,6,robot,0.216902751097,right,1,correct,path,3,path3,beaver
65,6,pigeon,5.33357965079,right,1,correct,decision,1,decision1,beaver
66,6,bus,2.75023016796,right,1,correct,arm1,1,arm11,beaver
67,6,deer,0.500057655183,left,1,correct,arm1,2,arm12,beaver
68,6,fist,2.1835231125,left,1,correct,arm1,3,arm13,beaver
69,6,stepladder,1.76697190714,left,1,correct,decision,2,decision2,beaver
70,6,calc,0.533668820135,right,1,correct,arm2,1,arm21,beaver
71,6,tongue,0.433615632443,right,1,correct,arm2,2,arm22,beaver
72,6,beaver,0.400315382954,left,1,correct,arm2,3,arm23,beaver
73,7,arc,0.783579318726,space,-1,miss,target,NaN,targetNaN,arc
74,7,trophy,4.80021510518,right,-1,miss,path,1,path1,arc
75,7,astronaut,0.166734886938,right,-1,miss,path,2,path2,arc
76,7,robot,0.216917844082,right,-1,miss,path,3,path3,arc
77,7,pigeon,4.05036709152,right,-1,miss,decision,1,decision1,arc
78,7,bus,1.43357246654,right,-1,miss,arm1,1,arm11,arc
79,7,deer,0.600243962981,left,-1,miss,arm1,2,arm12,arc
80,7,fist,1.00023575238,left,-1,miss,arm1,3,arm13,arc
81,7,stepladder,2.35067366017,right,-1,miss,decision,2,decision2,arc
82,7,calc,0.58360576164,right,-1,miss,arm2,1,arm21,arc
83,7,tongue,0.184217993374,right,-1,miss,arm2,2,arm22,arc
84,7,beaver,0.516922854935,left,-1,miss,arm2,3,arm23,arc
85,8,arc,0.767481748073,space,1,correct,target,NaN,targetNaN,arc
86,8,trophy,0.450269832334,right,1,correct,path,1,path1,arc
87,8,astronaut,0.233582910878,right,1,correct,path,2,path2,arc
88,8,robot,0.650351455173,right,1,correct,path,3,path3,arc
89,8,watch,0.867049545457,left,1,correct,decision,1,decision1,arc
90,8,clover,1.26723271387,left,1,correct,arm1,1,arm11,arc
91,8,radio,0.266956512263,right,1,correct,arm1,2,arm12,arc
92,8,wing,1.20086857092,left,1,correct,arm1,3,arm13,arc
93,8,holly,1.16698090255,left,1,correct,decision,2,decision2,arc
94,8,match,0.500650205649,right,1,correct,arm2,1,arm21,arc
95,8,baby,0.516926779121,left,1,correct,arm2,2,arm22,arc
96,8,arc,0.650259086106,left,1,correct,arm2,3,arm23,arc
97,9,beaver,3.9168799305,space,1,correct,target,NaN,targetNaN,beaver
98,9,trophy,0.367214964499,right,1,correct,path,1,path1,beaver
99,9,astronaut,0.250263070688,right,1,correct,path,2,path2,beaver
100,9,robot,0.233574458805,right,1,correct,path,3,path3,beaver
101,9,pigeon,0.666980298818,left,1,correct,decision,1,decision1,beaver
102,9,bus,0.666984223004,right,1,correct,arm1,1,arm11,beaver
103,9,deer,0.517038467195,left,1,correct,arm1,2,arm12,beaver
104,9,fist,0.783579922485,left,1,correct,arm1,3,arm13,beaver
105,9,stepladder,0.816754598374,left,1,correct,decision,2,decision2,beaver
106,9,calc,0.533680894499,right,1,correct,arm2,1,arm21,beaver
107,9,tongue,0.233943935018,right,1,correct,arm2,2,arm22,beaver
108,9,beaver,0.416975921864,left,1,correct,arm2,3,arm23,beaver
109,10,beaver,3.76693085424,space,1,correct,target,NaN,targetNaN,beaver
110,10,trophy,0.383711593662,right,1,correct,path,1,path1,beaver
111,10,astronaut,0.200238288002,right,1,correct,path,2,path2,beaver
112,10,robot,0.250247675838,right,1,correct,path,3,path3,beaver
113,10,pigeon,2.4169547917,left,1,correct,decision,1,decision1,beaver
114,10,bus,1.45026651188,right,1,correct,arm1,1,arm11,beaver
115,10,deer,0.417050481192,left,1,correct,arm1,2,arm12,beaver
116,10,fist,0.400260444498,left,1,correct,arm1,3,arm13,beaver
117,10,stepladder,0.950255343079,left,1,correct,decision,2,decision2,beaver
118,10,calc,0.366904652794,right,1,correct,arm2,1,arm21,beaver
119,10,tongue,0.183576239768,right,1,correct,arm2,2,arm22,beaver
120,10,beaver,0.333672321693,left,1,correct,arm2,3,arm23,beaver
121,11,arc,1.16755534144,space,-1,miss,target,NaN,targetNaN,arc
122,11,trophy,0.483606003138,right,-1,miss,path,1,path1,arc
123,11,astronaut,0.367094220652,right,-1,miss,path,2,path2,arc
124,11,robot,0.299990521627,right,-1,miss,path,3,path3,arc
125,11,watch,1.6170388294,right,-1,miss,decision,1,decision1,arc
126,11,clover,0.516921949369,left,-1,miss,arm1,1,arm11,arc
127,11,radio,0.266899762675,right,-1,miss,arm1,2,arm12,arc
128,11,wing,0.266927835619,left,-1,miss,arm1,3,arm13,arc
129,11,stepladder,0.867011812981,left,-1,miss,decision,2,decision2,arc
130,11,calc,2.70024523075,right,-1,miss,arm2,1,arm21,arc
131,11,tongue,0.383687444875,right,-1,miss,arm2,2,arm22,arc
132,11,beaver,0.716688128887,left,-1,miss,arm2,3,arm23,arc
133,12,beaver,6.00016149489,space,1,correct,target,NaN,targetNaN,beaver
134,12,trophy,0.266853578156,right,1,correct,path,1,path1,beaver
135,12,astronaut,0.200244627049,right,1,correct,path,2,path2,beaver
136,12,robot,0.483588495292,right,1,correct,path,3,path3,beaver
137,12,pigeon,1.90027946164,right,1,correct,decision,1,decision1,beaver
138,12,bus,0.950250211463,right,1,correct,arm1,1,arm11,beaver
139,12,deer,0.300512135058,left,1,correct,arm1,2,arm12,beaver
140,12,fist,0.316919413744,left,1,correct,arm1,3,arm13,beaver
141,12,stepladder,1.88357424751,right,1,correct,decision,2,decision2,beaver
142,12,calc,1.41696354563,right,1,correct,arm2,1,arm21,beaver
143,12,tongue,1.40026104823,right,1,correct,arm2,2,arm22,beaver
144,12,beaver,0.933577899996,left,1,correct,arm2,3,arm23,beaver
145,13,arc,0.717314487643,space,1,correct,target,NaN,targetNaN,arc
146,13,trophy,0.367107804341,right,1,correct,path,1,path1,arc
147,13,astronaut,0.216947728186,right,1,correct,path,2,path2,arc
148,13,robot,0.300238046504,right,1,correct,path,3,path3,arc
149,13,watch,0.467139559973,left,1,correct,decision,1,decision1,arc
150,13,clover,1.10052922033,left,1,correct,arm1,1,arm11,arc
151,13,radio,0.316983408004,right,1,correct,arm1,2,arm12,arc
152,13,wing,0.500250241632,left,1,correct,arm1,3,arm13,arc
153,13,holly,1.61669440757,left,1,correct,decision,2,decision2,arc
154,13,match,0.283613127045,right,1,correct,arm2,1,arm21,arc
155,13,baby,0.81688530359,left,1,correct,arm2,2,arm22,arc
156,13,arc,0.650260897295,left,1,correct,arm2,3,arm23,arc
157,14,beaver,6.98355378144,space,1,correct,target,NaN,targetNaN,beaver
158,14,trophy,0.267310291791,right,1,correct,path,1,path1,beaver
159,14,astronaut,0.233681317099,right,1,correct,path,2,path2,beaver
160,14,robot,0.366895597021,right,1,correct,path,3,path3,beaver
161,14,pigeon,1.00025235466,left,1,correct,decision,1,decision1,beaver
162,14,bus,0.416919474112,right,1,correct,arm1,1,arm11,beaver
163,14,deer,0.600260565232,left,1,correct,arm1,2,arm12,beaver
164,14,fist,0.466911354073,left,1,correct,arm1,3,arm13,beaver
165,14,stepladder,1.13361997923,right,1,correct,decision,2,decision2,beaver
166,14,calc,0.683382747753,right,1,correct,arm2,1,arm21,beaver
167,14,tongue,1.08364168296,right,1,correct,arm2,2,arm22,beaver
168,14,beaver,0.450254437514,left,1,correct,arm2,3,arm23,beaver
169,15,beaver,6.50019137899,space,1,correct,target,NaN,targetNaN,beaver
170,15,trophy,0.233599211293,right,1,correct,path,1,path1,beaver
171,15,astronaut,0.267140948534,right,1,correct,path,2,path2,beaver
172,15,robot,0.21691059944,right,1,correct,path,3,path3,beaver
173,15,pigeon,1.2502600521,left,1,correct,decision,1,decision1,beaver
174,15,bus,5.36690676582,right,1,correct,arm1,1,arm11,beaver
175,15,deer,0.233601324318,left,1,correct,arm1,2,arm12,beaver
176,15,fist,0.483581552515,left,1,correct,arm1,3,arm13,beaver
177,15,stepladder,4.30026219529,left,1,correct,decision,2,decision2,beaver
178,15,calc,0.383567908459,right,1,correct,arm2,1,arm21,beaver
179,15,tongue,0.13362963876,right,1,correct,arm2,2,arm22,beaver
180,15,beaver,0.366922764399,left,1,correct,arm2,3,arm23,beaver
181,16,beaver,0.733743198361,space,1,correct,target,NaN,targetNaN,beaver
182,16,trophy,0.517526272364,right,1,correct,path,1,path1,beaver
183,16,astronaut,0.0668951140542,right,1,correct,path,2,path2,beaver
184,16,robot,0.200241608458,right,1,correct,path,3,path3,beaver
185,16,pigeon,0.28367440452,left,1,correct,decision,1,decision1,beaver
186,16,bus,0.58355957712,right,1,correct,arm1,1,arm11,beaver
187,16,deer,0.533647991804,left,1,correct,arm1,2,arm12,beaver
188,16,fist,0.250276050647,left,1,correct,arm1,3,arm13,beaver
189,16,stepladder,0.433788296155,right,1,correct,decision,2,decision2,beaver
190,16,calc,0.566915942356,right,1,correct,arm2,1,arm21,beaver
191,16,tongue,0.11709769204,right,1,correct,arm2,2,arm22,beaver
192,16,beaver,0.450264097017,left,1,correct,arm2,3,arm23,beaver
193,17,beaver,0.466988328291,space,1,correct,target,NaN,targetNaN,beaver
194,17,trophy,0.133585265401,right,1,correct,path,1,path1,beaver
195,17,astronaut,0.200258210738,right,1,correct,path,2,path2,beaver
196,17,robot,0.250239827466,right,1,correct,path,3,path3,beaver
197,17,pigeon,1.43362529197,left,1,correct,decision,1,decision1,beaver
198,17,bus,0.300218425633,right,1,correct,arm1,1,arm11,beaver
199,17,deer,0.416957810288,left,1,correct,arm1,2,arm12,beaver
200,17,fist,0.266913044499,left,1,correct,arm1,3,arm13,beaver
201,17,stepladder,0.750308349612,left,1,correct,decision,2,decision2,beaver
202,17,calc,0.416939396848,right,1,correct,arm2,1,arm21,beaver
203,17,tongue,0.116925028327,right,1,correct,arm2,2,arm22,beaver
204,17,beaver,0.450214592012,left,1,correct,arm2,3,arm23,beaver
205,18,beaver,0.383638543601,space,1,correct,target,NaN,targetNaN,beaver
206,18,trophy,0.366917934618,right,1,correct,path,1,path1,beaver
207,18,astronaut,0.333597762365,right,1,correct,path,2,path2,beaver
208,18,robot,0.300250120898,right,1,correct,path,3,path3,beaver
209,18,pigeon,1.53358671433,right,1,correct,decision,1,decision1,beaver
210,18,bus,0.916941509844,right,1,correct,arm1,1,arm11,beaver
211,18,deer,0.350252867822,left,1,correct,arm1,2,arm12,beaver
212,18,fist,0.35024622691,left,1,correct,arm1,3,arm13,beaver
213,18,stepladder,1.13361635694,left,1,correct,decision,2,decision2,beaver
214,18,calc,5.63354119388,right,1,correct,arm2,1,arm21,beaver
215,18,tongue,0.183533375704,right,1,correct,arm2,2,arm22,beaver
216,18,beaver,0.250288728741,left,1,correct,arm2,3,arm23,beaver
217,19,arc,0.450383331568,space,1,correct,target,NaN,targetNaN,arc
218,19,trophy,0.333593838208,right,1,correct,path,1,path1,arc
219,19,astronaut,0.184087590023,right,1,correct,path,2,path2,arc
220,19,robot,0.383566399163,right,1,correct,path,3,path3,arc
221,19,watch,0.700270888861,left,1,correct,decision,1,decision1,arc
222,19,clover,0.783554566267,left,1,correct,arm1,1,arm11,arc
223,19,radio,1.18356990072,right,1,correct,arm1,2,arm12,arc
224,19,wing,0.366925481125,left,1,correct,arm1,3,arm13,arc
225,19,holly,1.61695732729,right,1,correct,decision,2,decision2,arc
226,19,match,0.783575092704,right,1,correct,arm2,1,arm21,arc
227,19,baby,0.333593838208,left,1,correct,arm2,2,arm22,arc
228,19,arc,0.750231979124,left,1,correct,arm2,3,arm23,arc
229,20,beaver,0.883583303308,space,1,correct,target,NaN,targetNaN,beaver
230,20,trophy,0.366711462644,right,1,correct,path,1,path1,beaver
231,20,astronaut,0.116902992566,right,1,correct,path,2,path2,beaver
232,20,robot,0.284325817629,right,1,correct,path,3,path3,beaver
233,20,pigeon,0.500347742287,right,1,correct,decision,1,decision1,beaver
234,20,bus,0.950277076947,right,1,correct,arm1,1,arm11,beaver
235,20,deer,0.383844110009,left,1,correct,arm1,2,arm12,beaver
236,20,fist,0.650280216301,left,1,correct,arm1,3,arm13,beaver
237,20,stepladder,2.46697534833,left,1,correct,decision,2,decision2,beaver
238,20,calc,0.866937857354,right,1,correct,arm2,1,arm21,beaver
239,20,tongue,0.200089169317,right,1,correct,arm2,2,arm22,beaver
240,20,beaver,0.466940332612,left,1,correct,arm2,3,arm23,beaver
241,21,beaver,2.78361191959,space,1,correct,target,NaN,targetNaN,beaver
242,21,trophy,0.23389775047,right,1,correct,path,1,path1,beaver
243,21,astronaut,0.166720397683,right,1,correct,path,2,path2,beaver
244,21,robot,0.233612794982,right,1,correct,path,3,path3,beaver
245,21,pigeon,0.383711593633,left,1,correct,decision,1,decision1,beaver
246,21,bus,0.516969945049,right,1,correct,arm1,1,arm11,beaver
247,21,deer,0.216945615161,left,1,correct,arm1,2,arm12,beaver
248,21,fist,0.550290117302,left,1,correct,arm1,3,arm13,beaver
249,21,stepladder,1.78360286381,right,1,correct,decision,2,decision2,beaver
250,21,calc,0.650298026012,right,1,correct,arm2,1,arm21,beaver
251,21,tongue,0.400303006696,right,1,correct,arm2,2,arm22,beaver
252,21,beaver,0.583603648643,left,1,correct,arm2,3,arm23,beaver
253,22,beaver,0.750278465537,space,1,correct,target,NaN,targetNaN,beaver
254,22,trophy,0.33356546337,right,1,correct,path,1,path1,beaver
255,22,astronaut,0.3002591767,right,1,correct,path,2,path2,beaver
256,22,robot,0.416962338175,right,1,correct,path,3,path3,beaver
257,22,pigeon,1.15029319626,left,1,correct,decision,1,decision1,beaver
258,22,bus,0.583821893146,right,1,correct,arm1,1,arm11,beaver
259,22,deer,0.233587740659,left,1,correct,arm1,2,arm12,beaver
260,22,fist,0.250257335341,left,1,correct,arm1,3,arm13,beaver
261,22,stepladder,0.866952044773,left,1,correct,decision,2,decision2,beaver
262,22,calc,0.283697345876,right,1,correct,arm2,1,arm21,beaver
263,22,tongue,0.283785790729,right,1,correct,arm2,2,arm22,beaver
264,22,beaver,0.233621850784,left,1,correct,arm2,3,arm23,beaver
265,23,arc,0.433623480814,space,1,correct,target,NaN,targetNaN,arc
266,23,trophy,0.383596886997,right,1,correct,path,1,path1,arc
267,23,astronaut,0.133585265372,right,1,correct,path,2,path2,arc
268,23,robot,0.500230922626,right,1,correct,path,3,path3,arc
269,23,watch,1.35014027415,right,1,correct,decision,1,decision1,arc
270,23,clover,0.56699382214,left,1,correct,arm1,1,arm11,arc
271,23,radio,1.0002399784,right,1,correct,arm1,2,arm12,arc
272,23,wing,0.366910991841,left,1,correct,arm1,3,arm13,arc
273,23,holly,1.00029069083,left,1,correct,decision,2,decision2,arc
274,23,match,0.583644701546,right,1,correct,arm2,1,arm21,arc
275,23,baby,0.500418679294,left,1,correct,arm2,2,arm22,arc
276,23,arc,0.500270164368,left,1,correct,arm2,3,arm23,arc
277,24,beaver,0.466916485719,space,0,wrong,target,NaN,targetNaN,beaver
278,24,trophy,0.366915821622,right,0,wrong,path,1,path1,beaver
279,24,astronaut,0.484111919883,right,0,wrong,path,2,path2,beaver
280,24,robot,0.450416837964,right,0,wrong,path,3,path3,beaver
281,24,watch,2.91692490759,right,0,wrong,decision,1,decision1,beaver
282,24,clover,0.61691627439,left,0,wrong,arm1,1,arm11,beaver
283,24,radio,0.666880987003,right,0,wrong,arm1,2,arm12,beaver
284,24,wing,0.400306327181,left,0,wrong,arm1,3,arm13,beaver
285,24,stepladder,2.21697066948,left,0,wrong,decision,2,decision2,beaver
286,24,calc,0.283583846642,right,0,wrong,arm2,1,arm21,beaver
287,24,tongue,0.200240400998,right,0,wrong,arm2,2,arm22,beaver
288,24,beaver,0.333601082821,left,0,wrong,arm2,3,arm23,beaver
289,25,arc,0.566960315715,space,1,correct,target,NaN,targetNaN,arc
290,25,trophy,0.416962941905,right,1,correct,path,1,path1,arc
291,25,astronaut,0.18355209101,right,1,correct,path,2,path2,arc
292,25,robot,0.300265817583,right,1,correct,path,3,path3,arc
293,25,watch,0.900535740482,left,1,correct,decision,1,decision1,arc
294,25,clover,0.80025736551,left,1,correct,arm1,1,arm11,arc
295,25,radio,0.450262285827,right,1,correct,arm1,2,arm12,arc
296,25,wing,0.250267900439,left,1,correct,arm1,3,arm13,arc
297,25,holly,1.5669328465,left,1,correct,decision,2,decision2,arc
298,25,match,0.200401895912,right,1,correct,arm2,1,arm21,arc
299,25,baby,0.566957297124,left,1,correct,arm2,2,arm22,arc
300,25,arc,0.750237412605,left,1,correct,arm2,3,arm23,arc
301,26,arc,3.20025821071,space,1,correct,target,NaN,targetNaN,arc
302,26,trophy,0.433621971519,right,1,correct,path,1,path1,arc
303,26,astronaut,0.416913436929,right,1,correct,path,2,path2,arc
304,26,robot,0.80025676181,right,1,correct,path,3,path3,arc
305,26,watch,0.050631822407,left,1,correct,decision,1,decision1,arc
306,26,clover,1.68381561449,left,1,correct,arm1,1,arm11,arc
307,26,radio,0.38373513869,right,1,correct,arm1,2,arm12,arc
308,26,wing,0.433361164789,left,1,correct,arm1,3,arm13,arc
309,26,holly,1.06699472771,left,1,correct,decision,2,decision2,arc
310,26,match,0.250268806005,right,1,correct,arm2,1,arm21,arc
311,26,baby,0.233600418753,left,1,correct,arm2,2,arm22,arc
312,26,arc,0.300282117998,left,1,correct,arm2,3,arm23,arc
313,27,arc,0.683567787724,space,0,wrong,target,NaN,targetNaN,arc
314,27,trophy,0.500255373248,right,0,wrong,path,1,path1,arc
315,27,astronaut,0.1335454199,right,0,wrong,path,2,path2,arc
316,27,robot,0.36692638669,right,0,wrong,path,3,path3,arc
317,27,pigeon,0.0503580357181,left,0,wrong,decision,1,decision1,arc
318,27,bus,1.38366450355,right,0,wrong,arm1,1,arm11,arc
319,27,deer,0.366729876056,left,0,wrong,arm1,2,arm12,arc
320,27,fist,0.383825998462,left,0,wrong,arm1,3,arm13,arc
321,27,holly,0.917246689962,right,0,wrong,decision,2,decision2,arc
322,27,match,1.60050205296,right,0,wrong,arm2,1,arm21,arc
323,27,baby,0.650345116126,left,0,wrong,arm2,2,arm22,arc
324,27,arc,0.700233156385,left,0,wrong,arm2,3,arm23,arc
325,28,beaver,0.650449257722,space,1,correct,target,NaN,targetNaN,beaver
326,28,trophy,2.25029084174,right,1,correct,path,1,path1,beaver
327,28,astronaut,0.33359806423,right,1,correct,path,2,path2,beaver
328,28,robot,0.300235329778,right,1,correct,path,3,path3,beaver
329,28,pigeon,0.433637366368,left,1,correct,decision,1,decision1,beaver
330,28,bus,0.433631329186,right,1,correct,arm1,1,arm11,beaver
331,28,deer,0.450332920969,left,1,correct,arm1,2,arm12,beaver
332,28,fist,0.516926477256,left,1,correct,arm1,3,arm13,beaver
333,28,stepladder,1.26694202301,left,1,correct,decision,2,decision2,beaver
334,28,calc,0.217005685234,right,1,correct,arm2,1,arm21,beaver
335,28,tongue,0.750337026286,right,1,correct,arm2,2,arm22,beaver
336,28,beaver,0.466911354102,left,1,correct,arm2,3,arm23,beaver
337,29,arc,0.616985098401,space,-1,miss,target,NaN,targetNaN,arc
338,29,trophy,5.23357808113,right,-1,miss,path,1,path1,arc
339,29,astronaut,0.717176839622,right,-1,miss,path,2,path2,arc
340,29,robot,0.716921164538,right,-1,miss,path,3,path3,arc
341,29,pigeon,0.0169352311932,left,-1,miss,decision,1,decision1,arc
342,29,bus,1.76694685276,right,-1,miss,arm1,1,arm11,arc
343,29,deer,0.333579348953,left,-1,miss,arm1,2,arm12,arc
344,29,fist,0.433581220452,left,-1,miss,arm1,3,arm13,arc
345,29,stepladder,1.16695524449,right,-1,miss,decision,2,decision2,arc
346,29,calc,0.566915942356,right,-1,miss,arm2,1,arm21,arc
347,29,tongue,1.60029376982,right,-1,miss,arm2,2,arm22,arc
348,29,beaver,0.40025048313,left,-1,miss,arm2,3,arm23,arc
349,30,arc,0.933635555208,space,1,correct,target,NaN,targetNaN,arc
350,30,trophy,0.450263191422,right,1,correct,path,1,path1,arc
351,30,astronaut,0.267012054479,right,1,correct,path,2,path2,arc
352,30,robot,0.250277861778,right,1,correct,path,3,path3,arc
353,30,watch,0.566721544747,right,1,correct,decision,1,decision1,arc
354,30,clover,0.516920741909,left,1,correct,arm1,1,arm11,arc
355,30,radio,0.366886239353,right,1,correct,arm1,2,arm12,arc
356,30,wing,0.417310382327,left,1,correct,arm1,3,arm13,arc
357,30,holly,1.08345935971,left,1,correct,decision,2,decision2,arc
358,30,match,0.283611919585,right,1,correct,arm2,1,arm21,arc
359,30,baby,0.450302433193,left,1,correct,arm2,2,arm22,arc
360,30,arc,1.05024604578,left,1,correct,arm2,3,arm23,arc
361,31,beaver,5.65018060262,space,1,correct,target,NaN,targetNaN,beaver
362,31,trophy,4.8168508916,right,1,correct,path,1,path1,beaver
363,31,astronaut,0.333579650789,right,1,correct,path,2,path2,beaver
364,31,robot,0.316924243496,right,1,correct,path,3,path3,beaver
365,31,pigeon,0.600342369173,right,1,correct,decision,1,decision1,beaver
366,31,bus,1.06702430997,right,1,correct,arm1,1,arm11,beaver
367,31,deer,0.433587861364,left,1,correct,arm1,2,arm12,beaver
368,31,fist,0.366911897436,left,1,correct,arm1,3,arm13,beaver
369,31,stepladder,0.750102783204,right,1,correct,decision,2,decision2,beaver
370,31,calc,0.734139841923,right,1,correct,arm2,1,arm21,beaver
371,31,tongue,0.783596524736,right,1,correct,arm2,2,arm22,beaver
372,31,beaver,0.600248792733,left,1,correct,arm2,3,arm23,beaver
373,32,arc,0.467047794664,space,1,correct,target,NaN,targetNaN,arc
374,32,trophy,0.666915700858,right,1,correct,path,1,path1,arc
375,32,astronaut,0.216900638072,right,1,correct,path,2,path2,arc
376,32,robot,0.350259206869,right,1,correct,path,3,path3,arc
377,32,watch,1.08365164432,left,1,correct,decision,1,decision1,arc
378,32,clover,0.650498762698,left,1,correct,arm1,1,arm11,arc
379,32,radio,0.350299052341,right,1,correct,arm1,2,arm12,arc
380,32,wing,0.300648877484,left,1,correct,arm1,3,arm13,arc
381,32,holly,1.15030557252,left,1,correct,decision,2,decision2,arc
382,32,match,0.216998138756,right,1,correct,arm2,1,arm21,arc
383,32,baby,0.317054344981,left,1,correct,arm2,2,arm22,arc
384,32,arc,0.38362133762,left,1,correct,arm2,3,arm23,arc
385,33,arc,4.85020094796,space,1,correct,target,NaN,targetNaN,arc
386,33,trophy,0.384014056996,right,1,correct,path,1,path1,arc
387,33,astronaut,0.317271985812,right,1,correct,path,2,path2,arc
388,33,robot,0.366931518307,right,1,correct,path,3,path3,arc
389,33,watch,0.700319488242,right,1,correct,decision,1,decision1,arc
390,33,clover,0.366931518307,left,1,correct,arm1,1,arm11,arc
391,33,radio,0.267150909902,right,1,correct,arm1,2,arm12,arc
392,33,wing,0.250309858908,left,1,correct,arm1,3,arm13,arc
393,33,holly,0.866982230713,left,1,correct,decision,2,decision2,arc
394,33,match,0.266943532333,right,1,correct,arm2,1,arm21,arc
395,33,baby,0.200263946055,left,1,correct,arm2,2,arm22,arc
396,33,arc,0.333667190076,left,1,correct,arm2,3,arm23,arc
397,34,arc,0.550258120173,space,0,wrong,target,NaN,targetNaN,arc
398,34,trophy,1.00024511004,right,0,wrong,path,1,path1,arc
399,34,astronaut,0.733565403032,right,0,wrong,path,2,path2,arc
400,34,robot,0.534262578032,right,0,wrong,path,3,path3,arc
401,34,pigeon,0.066922583268,left,0,wrong,decision,1,decision1,arc
402,34,bus,2.63359069885,right,0,wrong,arm1,1,arm11,arc
403,34,deer,0.400258633337,left,0,wrong,arm1,2,arm12,arc
404,34,fist,0.300248007872,left,0,wrong,arm1,3,arm13,arc
405,34,holly,1.75029748265,right,0,wrong,decision,2,decision2,arc
406,34,match,0.83355006855,right,0,wrong,arm2,1,arm21,arc
407,34,baby,0.43359238925,left,0,wrong,arm2,2,arm22,arc
408,34,arc,0.400251992425,left,0,wrong,arm2,3,arm23,arc
409,35,arc,1.45025443748,space,1,correct,target,NaN,targetNaN,arc
410,35,trophy,0.600252716889,right,1,correct,path,1,path1,arc
411,35,astronaut,0.533589431056,right,1,correct,path,2,path2,arc
412,35,robot,0.566940694844,right,1,correct,path,3,path3,arc
413,35,watch,0.767706029757,right,1,correct,decision,1,decision1,arc
414,35,clover,0.516911686136,left,1,correct,arm1,1,arm11,arc
415,35,radio,0.400385414367,right,1,correct,arm1,2,arm12,arc
416,35,wing,0.400555059488,left,1,correct,arm1,3,arm13,arc
417,35,holly,9.90018316844,left,1,correct,decision,2,decision2,arc
418,35,match,0.433581824182,right,1,correct,arm2,1,arm21,arc
419,35,baby,6.20021534667,left,1,correct,arm2,2,arm22,arc
420,35,arc,0.550232160254,left,1,correct,arm2,3,arm23,arc
421,36,arc,0.667165338789,space,1,correct,target,NaN,targetNaN,arc
422,36,trophy,0.333575726632,right,1,correct,path,1,path1,arc
423,36,astronaut,0.183534281299,right,1,correct,path,2,path2,arc
424,36,robot,0.383595981402,right,1,correct,path,3,path3,arc
425,36,watch,1.15029772415,left,1,correct,decision,1,decision1,arc
426,36,clover,1.13380079318,left,1,correct,arm1,1,arm11,arc
427,36,radio,0.516925269825,right,1,correct,arm1,2,arm12,arc
428,36,wing,0.31702114045,left,1,correct,arm1,3,arm13,arc
429,36,holly,1.33377102981,left,1,correct,decision,2,decision2,arc
430,36,match,0.350287883542,right,1,correct,arm2,1,arm21,arc
431,36,baby,0.350271884992,left,1,correct,arm2,2,arm22,arc
432,36,arc,1.26690851658,left,1,correct,arm2,3,arm23,arc
433,37,beaver,0.683599784825,space,1,correct,target,NaN,targetNaN,beaver
434,37,trophy,0.500262316025,right,1,correct,path,1,path1,beaver
435,37,astronaut,0.150539513706,right,1,correct,path,2,path2,beaver
436,37,robot,0.350309617439,right,1,correct,path,3,path3,beaver
437,37,pigeon,0.300373279635,right,1,correct,decision,1,decision1,beaver
438,37,bus,1.08369088607,right,1,correct,arm1,1,arm11,beaver
439,37,deer,0.38368593558,left,1,correct,arm1,2,arm12,beaver
440,37,fist,0.266984887101,left,1,correct,arm1,3,arm13,beaver
441,37,stepladder,2.88342452512,left,1,correct,decision,2,decision2,beaver
442,37,calc,0.383617715299,right,1,correct,arm2,1,arm21,beaver
443,37,tongue,0.200241608458,right,1,correct,arm2,2,arm22,beaver
444,37,beaver,0.500210094324,left,1,correct,arm2,3,arm23,beaver
445,38,beaver,6.85018253454,space,1,correct,target,NaN,targetNaN,beaver
446,38,trophy,0.233597701997,right,1,correct,path,1,path1,beaver
447,38,astronaut,0.150238559669,right,1,correct,path,2,path2,beaver
448,38,robot,0.383598094428,right,1,correct,path,3,path3,beaver
449,38,pigeon,0.700290811597,left,1,correct,decision,1,decision1,beaver
450,38,bus,0.433636460773,right,1,correct,arm1,1,arm11,beaver
451,38,deer,0.683544242667,left,1,correct,arm1,2,arm12,beaver
452,38,fist,0.750588777213,left,1,correct,arm1,3,arm13,beaver
453,38,stepladder,1.5005502901,right,1,correct,decision,2,decision2,beaver
454,38,calc,2.48355830932,right,1,correct,arm2,1,arm21,beaver
455,38,tongue,0.450252324459,right,1,correct,arm2,2,arm22,beaver
456,38,beaver,0.700273605587,left,1,correct,arm2,3,arm23,beaver
457,39,arc,0.433728829841,space,1,correct,target,NaN,targetNaN,arc
458,39,trophy,0.183538205485,right,1,correct,path,1,path1,arc
459,39,astronaut,0.483788024518,right,1,correct,path,2,path2,arc
460,39,robot,0.400248370104,right,1,correct,path,3,path3,arc
461,39,watch,1.75027665435,right,1,correct,decision,1,decision1,arc
462,39,clover,0.383641864057,left,1,correct,arm1,1,arm11,arc
463,39,radio,0.666913889698,right,1,correct,arm1,2,arm12,arc
464,39,wing,0.433573070244,left,1,correct,arm1,3,arm13,arc
465,39,holly,1.35031233417,left,1,correct,decision,2,decision2,arc
466,39,match,0.400260444498,right,1,correct,arm2,1,arm21,arc
467,39,baby,0.73359015552,left,1,correct,arm2,2,arm22,arc
468,39,arc,1.00023816727,left,1,correct,arm2,3,arm23,arc
469,40,beaver,1.9835658558,space,0,wrong,target,NaN,targetNaN,beaver
470,40,trophy,0.333596856799,right,0,wrong,path,1,path1,beaver
471,40,astronaut,0.216903354798,right,0,wrong,path,2,path2,beaver
472,40,robot,1.28358112989,right,0,wrong,path,3,path3,beaver
473,40,watch,1.2336290954,right,0,wrong,decision,1,decision1,beaver
474,40,clover,0.350345538725,left,0,wrong,arm1,1,arm11,beaver
475,40,radio,0.284167341335,right,0,wrong,arm1,2,arm12,beaver
476,40,wing,0.183601595985,left,0,wrong,arm1,3,arm13,beaver
477,40,stepladder,0.0836284011311,left,0,wrong,decision,2,decision2,beaver
478,40,calc,2.55025570531,right,0,wrong,arm2,1,arm21,beaver
479,40,tongue,0.333544031368,right,0,wrong,arm2,2,arm22,beaver
480,40,beaver,0.550421728112,left,0,wrong,arm2,3,arm23,beaver
481,41,arc,0.966936408426,space,1,correct,target,NaN,targetNaN,arc
482,41,trophy,0.233572345809,right,1,correct,path,1,path1,arc
483,41,astronaut,0.11691687812,right,1,correct,path,2,path2,arc
484,41,robot,0.500251147227,right,1,correct,path,3,path3,arc
485,41,watch,0.833413627988,left,1,correct,decision,1,decision1,arc
486,41,clover,0.900274330023,left,1,correct,arm1,1,arm11,arc
487,41,radio,0.317434688128,right,1,correct,arm1,2,arm12,arc
488,41,wing,0.21694199284,left,1,correct,arm1,3,arm13,arc
489,41,holly,0.850333464332,right,1,correct,decision,2,decision2,arc
490,41,match,1.93361351945,right,1,correct,arm2,1,arm21,arc
491,41,baby,0.850205777708,left,1,correct,arm2,2,arm22,arc
492,41,arc,0.533580375253,left,1,correct,arm2,3,arm23,arc
493,42,beaver,1.10025482991,space,1,correct,target,NaN,targetNaN,beaver
494,42,trophy,0.616941026907,right,1,correct,path,1,path1,beaver
495,42,astronaut,0.266950776946,right,1,correct,path,2,path2,beaver
496,42,robot,1.10027777121,right,1,correct,path,3,path3,beaver
497,42,pigeon,1.13379988758,right,1,correct,decision,1,decision1,beaver
498,42,bus,0.966895355523,right,1,correct,arm1,1,arm11,beaver
499,42,deer,0.266900366405,left,1,correct,arm1,2,arm12,beaver
500,42,fist,0.250248581404,left,1,correct,arm1,3,arm13,beaver
501,42,stepladder,7.61689846468,left,1,correct,decision,2,decision2,beaver
502,42,calc,0.233575666265,right,1,correct,arm2,1,arm21,beaver
503,42,tongue,0.483577628329,right,1,correct,arm2,2,arm22,beaver
504,42,beaver,0.283935513115,left,1,correct,arm2,3,arm23,beaver
505,43,beaver,1.36691793462,space,1,correct,target,NaN,targetNaN,beaver
506,43,trophy,0.850159291324,right,1,correct,path,1,path1,beaver
507,43,astronaut,0.333596856799,right,1,correct,path,2,path2,beaver
508,43,robot,0.400251992396,right,1,correct,path,3,path3,beaver
509,43,pigeon,1.26734259076,right,1,correct,decision,1,decision1,beaver
510,43,bus,1.78357599827,right,1,correct,arm1,1,arm11,beaver
511,43,deer,0.283576300164,left,1,correct,arm1,2,arm12,beaver
512,43,fist,0.300336452754,left,1,correct,arm1,3,arm13,beaver
513,43,stepladder,0.78357780946,left,1,correct,decision,2,decision2,beaver
514,43,calc,1.05025962947,right,1,correct,arm2,1,arm21,beaver
515,43,tongue,0.766924817028,right,1,correct,arm2,2,arm22,beaver
516,43,beaver,0.700186368136,left,1,correct,arm2,3,arm23,beaver
517,44,arc,0.416964753065,space,1,correct,target,NaN,targetNaN,arc
518,44,trophy,0.433618651063,right,1,correct,path,1,path1,arc
519,44,astronaut,0.283530719375,right,1,correct,path,2,path2,arc
520,44,robot,0.300251328328,right,1,correct,path,3,path3,arc
521,44,watch,2.50022911147,right,1,correct,decision,1,decision1,arc
522,44,clover,0.383918065636,left,1,correct,arm1,1,arm11,arc
523,44,radio,0.967273585644,right,1,correct,arm1,2,arm12,arc
524,44,wing,0.450238137069,left,1,correct,arm1,3,arm13,arc
525,44,holly,0.983631359355,left,1,correct,decision,2,decision2,arc
526,44,match,0.300269741769,right,1,correct,arm2,1,arm21,arc
527,44,baby,0.350313541596,left,1,correct,arm2,2,arm22,arc
528,44,arc,0.350309315574,left,1,correct,arm2,3,arm23,arc
529,45,arc,0.600282902858,space,1,correct,target,NaN,targetNaN,arc
530,45,trophy,0.41694603776,right,1,correct,path,1,path1,arc
531,45,astronaut,0.217063340417,right,1,correct,path,2,path2,arc
532,45,robot,0.566927714885,right,1,correct,path,3,path3,arc
533,45,watch,0.600460396323,left,1,correct,decision,1,decision1,arc
534,45,clover,0.683633593115,left,1,correct,arm1,1,arm11,arc
535,45,radio,0.333671114262,right,1,correct,arm1,2,arm12,arc
536,45,wing,0.300335849024,left,1,correct,arm1,3,arm13,arc
537,45,holly,0.967389499769,left,1,correct,decision,2,decision2,arc
538,45,match,0.266967982956,right,1,correct,arm2,1,arm21,arc
539,45,baby,0.317092681158,left,1,correct,arm2,2,arm22,arc
540,45,arc,0.350245321315,left,1,correct,arm2,3,arm23,arc
541,46,arc,5.50019862366,space,1,correct,target,NaN,targetNaN,arc
542,46,trophy,0.283616145607,right,1,correct,path,1,path1,arc
543,46,astronaut,0.183577447227,right,1,correct,path,2,path2,arc
544,46,robot,0.350239284133,right,1,correct,path,3,path3,arc
545,46,watch,0.600281997264,left,1,correct,decision,1,decision1,arc
546,46,clover,3.90028459328,left,1,correct,arm1,1,arm11,arc
547,46,radio,0.333593234478,right,1,correct,arm1,2,arm12,arc
548,46,wing,0.633605188137,left,1,correct,arm1,3,arm13,arc
549,46,holly,0.866954459634,left,1,correct,decision,2,decision2,arc
550,46,match,0.266920289141,right,1,correct,arm2,1,arm21,arc
551,46,baby,0.216920862673,left,1,correct,arm2,2,arm22,arc
552,46,arc,0.216967952758,left,1,correct,arm2,3,arm23,arc
553,47,beaver,0.916933963366,space,1,correct,target,NaN,targetNaN,beaver
554,47,trophy,0.733568421623,right,1,correct,path,1,path1,beaver
555,47,astronaut,0.466919202416,right,1,correct,path,2,path2,beaver
556,47,robot,0.433570655383,right,1,correct,path,3,path3,beaver
557,47,pigeon,12.4167664313,left,1,correct,decision,1,decision1,beaver
558,47,bus,0.500263825321,right,1,correct,arm1,1,arm11,beaver
559,47,deer,0.550263855519,left,1,correct,arm1,2,arm12,beaver
560,47,fist,0.566902962397,left,1,correct,arm1,3,arm13,beaver
561,47,stepladder,0.850254075252,right,1,correct,decision,2,decision2,beaver
562,47,calc,0.800260082266,right,1,correct,arm2,1,arm21,beaver
563,47,tongue,0.766912440769,right,1,correct,arm2,2,arm22,beaver
564,47,beaver,0.300317737448,left,1,correct,arm2,3,arm23,beaver
565,48,arc,0.767096575175,space,1,correct,target,NaN,targetNaN,arc
566,48,trophy,0.2838250325,right,1,correct,path,1,path1,arc
567,48,astronaut,0.183723849128,right,1,correct,path,2,path2,arc
568,48,robot,0.200241306593,right,1,correct,path,3,path3,arc
569,48,watch,0.283763754967,right,1,correct,decision,1,decision1,arc
570,48,clover,0.400270104001,left,1,correct,arm1,1,arm11,arc
571,48,radio,0.250281785964,right,1,correct,arm1,2,arm12,arc
572,48,wing,0.450332317268,left,1,correct,arm1,3,arm13,arc
573,48,holly,0.716934144497,right,1,correct,decision,2,decision2,arc
574,48,match,0.683619405696,right,1,correct,arm2,1,arm21,arc
575,48,baby,0.25025250559,left,1,correct,arm2,2,arm22,arc
576,48,arc,0.583863247943,left,1,correct,arm2,3,arm23,arc
577,49,arc,3.53358580873,space,1,correct,target,NaN,targetNaN,arc
578,49,trophy,0.250244355382,right,1,correct,path,1,path1,arc
579,49,astronaut,0.150229805731,right,1,correct,path,2,path2,arc
580,49,robot,0.466917391284,right,1,correct,path,3,path3,arc
581,49,watch,0.317173277697,left,1,correct,decision,1,decision1,arc
582,49,clover,1.00023062079,left,1,correct,arm1,1,arm11,arc
583,49,radio,1.28357569646,right,1,correct,arm1,2,arm12,arc
584,49,wing,0.416917964816,left,1,correct,arm1,3,arm13,arc
585,49,holly,0.650299837172,left,1,correct,decision,2,decision2,arc
586,49,match,0.200314960326,right,1,correct,arm2,1,arm21,arc
587,49,baby,0.450276473246,left,1,correct,arm2,2,arm22,arc
588,49,arc,0.450280397432,left,1,correct,arm2,3,arm23,arc
589,50,beaver,0.550371015677,space,-1,miss,target,NaN,targetNaN,beaver
590,50,trophy,0.383596886968,right,-1,miss,path,1,path1,beaver
591,50,astronaut,0.53360512777,right,-1,miss,path,2,path2,beaver
592,50,robot,0.450067586353,right,-1,miss,path,3,path3,beaver
593,50,watch,1.96700915662,right,-1,miss,decision,1,decision1,beaver
594,50,clover,0.433595709736,left,-1,miss,arm1,1,arm11,beaver
595,50,radio,0.550276231777,right,-1,miss,arm1,2,arm12,beaver
596,50,wing,0.166905135789,left,-1,miss,arm1,3,arm13,beaver
597,50,holly,1.18356476913,right,-1,miss,decision,2,decision2,beaver
598,50,match,0.966915278259,right,-1,miss,arm2,1,arm21,beaver
599,50,baby,0.217275245872,left,-1,miss,arm2,2,arm22,beaver
600,50,arc,0.216891884163,left,-1,miss,arm2,3,arm23,beaver
