pic_index,trial_num,pic_name,rt,resp,feedback_code,feedback,segment,segment_index,pic_type,trial_target
1,1,lion,5.91688385466,space,-1,miss,target,NaN,targetNaN,lion
2,1,coffeepot,2.46690199641,right,-1,miss,path,1,path1,lion
3,1,mosquito,1.01691108244,right,-1,miss,path,2,path2,lion
4,1,canoe,0.866911293706,left,-1,miss,path,3,path3,lion
5,1,domino,5.81687262538,left,-1,miss,decision,1,decision1,lion
6,1,ambulance,2.3002341222,left,-1,miss,arm1,1,arm11,lion
7,1,trunk,0.816936921561,right,-1,miss,arm1,2,arm12,lion
8,1,peach,0.93358846521,right,-1,miss,arm1,3,arm13,lion
9,1,garlic,3.81687745522,right,-1,miss,decision,2,decision2,lion
10,1,mug,1.81689375569,left,-1,miss,arm2,1,arm21,lion
11,1,branch,6.10021287156,left,-1,miss,arm2,2,arm22,lion
12,1,bolt,1.16690604133,left,-1,miss,arm2,3,arm23,lion
13,2,lion,3.45021459204,space,-1,miss,target,NaN,targetNaN,lion
14,2,coffeepot,1.23361792671,right,-1,miss,path,1,path1,lion
15,2,mosquito,0.650256671244,right,-1,miss,path,2,path2,lion
16,2,canoe,0.40023780521,left,-1,miss,path,3,path3,lion
17,2,goose,2.63357349299,left,-1,miss,decision,1,decision1,lion
18,2,sailor,2.08378114202,right,-1,miss,arm1,1,arm11,lion
19,2,cooker,1.2002385899,left,-1,miss,arm1,2,arm12,lion
20,2,tooth,1.2835910914,right,-1,miss,arm1,3,arm13,lion
21,2,garlic,2.01692677918,right,-1,miss,decision,2,decision2,lion
22,2,mug,1.25024314784,left,-1,miss,arm2,1,arm21,lion
23,2,branch,1.08362296759,left,-1,miss,arm2,2,arm22,lion
24,2,bolt,1.45024236315,left,-1,miss,arm2,3,arm23,lion
25,3,lion,1.96687935712,space,1,correct,target,NaN,targetNaN,lion
26,3,coffeepot,1.0503438483,right,1,correct,path,1,path1,lion
27,3,mosquito,0.550281967269,right,1,correct,path,2,path2,lion
28,3,canoe,0.533581280848,left,1,correct,path,3,path3,lion
29,3,goose,2.0836205529,left,1,correct,decision,1,decision1,lion
30,3,sailor,1.11692110403,right,1,correct,arm1,1,arm11,lion
31,3,cooker,0.883584812749,left,1,correct,arm1,2,arm12,lion
32,3,tooth,0.633608508622,right,1,correct,arm1,3,arm13,lion
33,3,crutches,2.6502705568,left,1,correct,decision,2,decision2,lion
34,3,stapler,0.983596343547,left,1,correct,arm2,1,arm21,lion
35,3,rose,0.600419645431,left,1,correct,arm2,2,arm22,lion
36,3,lion,1.03358973283,right,1,correct,arm2,3,arm23,lion
37,4,bolt,5.35022419109,space,1,correct,target,NaN,targetNaN,bolt
38,4,coffeepot,1.11691597244,right,1,correct,path,1,path1,bolt
39,4,mosquito,0.500231526326,right,1,correct,path,2,path2,bolt
40,4,canoe,0.550249366323,left,1,correct,path,3,path3,bolt
41,4,domino,1.48358698585,left,1,correct,decision,1,decision1,bolt
42,4,ambulance,2.31690039649,left,1,correct,arm1,1,arm11,bolt
43,4,trunk,1.06696484378,right,1,correct,arm1,2,arm12,bolt
44,4,peach,1.43355526053,right,1,correct,arm1,3,arm13,bolt
45,4,garlic,1.45038363338,left,1,correct,decision,2,decision2,bolt
46,4,mug,0.800270345528,left,1,correct,arm2,1,arm21,bolt
47,4,branch,0.550236386247,left,1,correct,arm2,2,arm22,bolt
48,4,bolt,0.28356603696,left,1,correct,arm2,3,arm23,bolt
49,5,lion,3.6335520607,space,1,correct,target,NaN,targetNaN,lion
50,5,coffeepot,1.20025821077,right,1,correct,path,1,path1,lion
51,5,mosquito,0.483585778624,right,1,correct,path,2,path2,lion
52,5,canoe,0.350254377117,left,1,correct,path,3,path3,lion
53,5,goose,1.86694902601,left,1,correct,decision,1,decision1,lion
54,5,sailor,1.0668582872,right,1,correct,arm1,1,arm11,lion
55,5,cooker,0.58358704648,left,1,correct,arm1,2,arm12,lion
56,5,tooth,0.633580435533,right,1,correct,arm1,3,arm13,lion
57,5,crutches,1.26691153529,right,1,correct,decision,2,decision2,lion
58,5,stapler,1.05025419616,left,1,correct,arm2,1,arm21,lion
59,5,rose,0.350257395767,left,1,correct,arm2,2,arm22,lion
60,5,lion,0.683573221089,right,1,correct,arm2,3,arm23,lion
61,6,bolt,0.850275809178,space,1,correct,target,NaN,targetNaN,bolt
62,6,coffeepot,1.31689375569,right,1,correct,path,1,path1,bolt
63,6,mosquito,0.466905618785,right,1,correct,path,2,path2,bolt
64,6,canoe,0.400258935289,left,1,correct,path,3,path3,bolt
65,6,domino,1.51692949585,right,1,correct,decision,1,decision1,bolt
66,6,ambulance,1.01714260876,left,1,correct,arm1,1,arm11,bolt
67,6,trunk,0.516984132584,right,1,correct,arm1,2,arm12,bolt
68,6,peach,1.01691893092,right,1,correct,arm1,3,arm13,bolt
69,6,garlic,1.55020861514,left,1,correct,decision,2,decision2,bolt
70,6,mug,0.683726565912,left,1,correct,arm2,1,arm21,bolt
71,6,branch,0.400325646158,left,1,correct,arm2,2,arm22,bolt
72,6,bolt,0.216920862673,left,1,correct,arm2,3,arm23,bolt
73,7,lion,0.916959319729,space,-1,miss,target,NaN,targetNaN,lion
74,7,coffeepot,1.23374893353,right,-1,miss,path,1,path1,lion
75,7,mosquito,0.400261350209,right,-1,miss,path,2,path2,lion
76,7,canoe,0.283574790927,left,-1,miss,path,3,path3,lion
77,7,goose,4.3835899441,right,-1,miss,decision,1,decision1,lion
78,7,sailor,1.38361409283,right,-1,miss,arm1,1,arm11,lion
79,7,cooker,1.60027475259,left,-1,miss,arm1,2,arm12,lion
80,7,tooth,0.600261168787,right,-1,miss,arm1,3,arm13,lion
81,7,garlic,1.81696891878,left,-1,miss,decision,2,decision2,lion
82,7,mug,1.36692970712,left,-1,miss,arm2,1,arm21,lion
83,7,branch,0.250226545846,left,-1,miss,arm2,2,arm22,lion
84,7,bolt,0.216916636564,left,-1,miss,arm2,3,arm23,lion
85,8,bolt,0.400290630525,space,-1,miss,target,NaN,targetNaN,bolt
86,8,coffeepot,2.78358203545,right,-1,miss,path,1,path1,bolt
87,8,mosquito,0.266871086089,right,-1,miss,path,2,path2,bolt
88,8,canoe,0.316920319339,left,-1,miss,path,3,path3,bolt
89,8,domino,1.46691437252,left,-1,miss,decision,1,decision1,bolt
90,8,ambulance,1.16698482679,left,-1,miss,arm1,1,arm11,bolt
91,8,trunk,0.400259840768,right,-1,miss,arm1,2,arm12,bolt
92,8,peach,1.23354910244,right,-1,miss,arm1,3,arm13,bolt
93,8,crutches,1.43372822599,right,-1,miss,decision,2,decision2,bolt
94,8,stapler,1.11695581791,left,-1,miss,arm2,1,arm21,bolt
95,8,rose,0.166942264419,left,-1,miss,arm2,2,arm22,bolt
96,8,lion,1.13371325401,right,-1,miss,arm2,3,arm23,bolt
97,9,bolt,3.05019050348,space,-1,miss,target,NaN,targetNaN,bolt
98,9,coffeepot,1.35024562315,right,-1,miss,path,1,path1,bolt
99,9,mosquito,0.150231918786,right,-1,miss,path,2,path2,bolt
100,9,canoe,0.266959531,left,-1,miss,path,3,path3,bolt
101,9,domino,1.98360721045,right,-1,miss,decision,1,decision1,bolt
102,9,ambulance,1.0002369599,left,-1,miss,arm1,1,arm11,bolt
103,9,trunk,0.70024734363,right,-1,miss,arm1,2,arm12,bolt
104,9,peach,0.883729705354,right,-1,miss,arm1,3,arm13,bolt
105,9,crutches,2.63359824521,left,-1,miss,decision,2,decision2,bolt
106,9,stapler,0.833565463545,left,-1,miss,arm2,1,arm21,bolt
107,9,rose,0.150282631163,left,-1,miss,arm2,2,arm22,bolt
108,9,lion,0.766991226003,right,-1,miss,arm2,3,arm23,bolt
109,10,bolt,0.516975076636,space,1,correct,target,NaN,targetNaN,bolt
110,10,coffeepot,1.08357919799,right,1,correct,path,1,path1,bolt
111,10,mosquito,0.31691911188,right,1,correct,path,2,path2,bolt
112,10,canoe,1.51693583489,left,1,correct,path,3,path3,bolt
113,10,domino,0.883652429096,left,1,correct,decision,1,decision1,bolt
114,10,ambulance,1.51692406228,left,1,correct,arm1,1,arm11,bolt
115,10,trunk,0.35025045299,right,1,correct,arm1,2,arm12,bolt
116,10,peach,0.833715789486,right,1,correct,arm1,3,arm13,bolt
117,10,garlic,1.66696671513,right,1,correct,decision,2,decision2,bolt
118,10,mug,1.45039419853,left,1,correct,arm2,1,arm21,bolt
119,10,branch,0.183668910526,left,1,correct,arm2,2,arm22,bolt
120,10,bolt,0.16690000426,left,1,correct,arm2,3,arm23,bolt
121,11,bolt,0.633593415609,space,-1,miss,target,NaN,targetNaN,bolt
122,11,coffeepot,0.650253350846,right,-1,miss,path,1,path1,bolt
123,11,mosquito,0.216891884105,right,-1,miss,path,2,path2,bolt
124,11,canoe,0.233373118564,left,-1,miss,path,3,path3,bolt
125,11,domino,0.600290449336,left,-1,miss,decision,1,decision1,bolt
126,11,ambulance,0.933697738219,left,-1,miss,arm1,1,arm11,bolt
127,11,trunk,0.316961372038,right,-1,miss,arm1,2,arm12,bolt
128,11,peach,0.283592600608,right,-1,miss,arm1,3,arm13,bolt
129,11,crutches,0.467083414085,right,-1,miss,decision,2,decision2,bolt
130,11,stapler,0.533578262199,left,-1,miss,arm2,1,arm21,bolt
131,11,rose,0.250525085023,left,-1,miss,arm2,2,arm22,bolt
132,11,lion,0.416885665851,right,-1,miss,arm2,3,arm23,bolt
133,12,bolt,0.500310915522,space,-1,miss,target,NaN,targetNaN,bolt
134,12,coffeepot,0.833633985603,right,-1,miss,path,1,path1,bolt
135,12,mosquito,0.300449952018,right,-1,miss,path,2,path2,bolt
136,12,canoe,0.216939276084,left,-1,miss,path,3,path3,bolt
137,12,domino,1.21698666806,right,-1,miss,decision,1,decision1,bolt
138,12,ambulance,1.3167093196,left,-1,miss,arm1,1,arm11,bolt
139,12,trunk,0.650241880212,right,-1,miss,arm1,2,arm12,bolt
140,12,peach,1.20025156974,right,-1,miss,arm1,3,arm13,bolt
141,12,crutches,2.16694196267,right,-1,miss,decision,2,decision2,bolt
142,12,stapler,0.70025126799,left,-1,miss,arm2,1,arm21,bolt
143,12,rose,0.233564497437,left,-1,miss,arm2,2,arm22,bolt
144,12,lion,0.433581824182,right,-1,miss,arm2,3,arm23,bolt
145,13,lion,1.36693302752,space,1,correct,target,NaN,targetNaN,lion
146,13,coffeepot,0.983577628387,right,1,correct,path,1,path1,lion
147,13,mosquito,0.550265666796,right,1,correct,path,2,path2,lion
148,13,canoe,0.217048247578,left,1,correct,path,3,path3,lion
149,13,goose,1.50032419735,right,1,correct,decision,1,decision1,lion
150,13,sailor,1.65029802592,right,1,correct,arm1,1,arm11,lion
151,13,cooker,1.56692348863,left,1,correct,arm1,2,arm12,lion
152,13,tooth,0.466732955072,right,1,correct,arm1,3,arm13,lion
153,13,crutches,0.566925601801,left,1,correct,decision,2,decision2,lion
154,13,stapler,0.566936468706,left,1,correct,arm2,1,arm21,lion
155,13,rose,0.233694598777,left,1,correct,arm2,2,arm22,lion
156,13,lion,0.516927986639,right,1,correct,arm2,3,arm23,lion
157,14,lion,2.20024764561,space,1,correct,target,NaN,targetNaN,lion
158,14,coffeepot,0.750269107753,right,1,correct,path,1,path1,lion
159,14,mosquito,0.416921285447,right,1,correct,path,2,path2,lion
160,14,canoe,0.216906977119,left,1,correct,path,3,path3,lion
161,14,goose,1.03358641244,right,1,correct,decision,1,decision1,lion
162,14,sailor,1.10005107475,right,1,correct,arm1,1,arm11,lion
163,14,cooker,0.666723416187,left,1,correct,arm1,2,arm12,lion
164,14,tooth,0.517031826312,right,1,correct,arm1,3,arm13,lion
165,14,crutches,0.583836684236,left,1,correct,decision,2,decision2,lion
166,14,stapler,0.567026422825,left,1,correct,arm2,1,arm21,lion
167,14,rose,0.18362483941,left,1,correct,arm2,2,arm22,lion
168,14,lion,0.366934838938,right,1,correct,arm2,3,arm23,lion
169,15,lion,0.516974774888,space,1,correct,target,NaN,targetNaN,lion
170,15,coffeepot,0.5002943133,right,1,correct,path,1,path1,lion
171,15,mosquito,0.300224161008,right,1,correct,path,2,path2,lion
172,15,canoe,0.133608206874,left,1,correct,path,3,path3,lion
173,15,goose,0.867009700043,left,1,correct,decision,1,decision1,lion
174,15,sailor,0.400254407199,right,1,correct,arm1,1,arm11,lion
175,15,cooker,0.40032232576,left,1,correct,arm1,2,arm12,lion
176,15,tooth,0.450262286002,right,1,correct,arm1,3,arm13,lion
177,15,crutches,0.716984253377,right,1,correct,decision,2,decision2,lion
178,15,stapler,0.550256007118,left,1,correct,arm2,1,arm21,lion
179,15,rose,0.266935985768,left,1,correct,arm2,2,arm22,lion
180,15,lion,0.366700897459,right,1,correct,arm2,3,arm23,lion
181,16,lion,0.383614394814,space,1,correct,target,NaN,targetNaN,lion
182,16,coffeepot,0.466924032196,right,1,correct,path,1,path1,lion
183,16,mosquito,0.383575756801,right,1,correct,path,2,path2,lion
184,16,canoe,0.216981234727,left,1,correct,path,3,path3,lion
185,16,goose,0.85027429997,right,1,correct,decision,1,decision1,lion
186,16,sailor,1.21713880519,right,1,correct,arm1,1,arm11,lion
187,16,cooker,0.350263432832,left,1,correct,arm1,2,arm12,lion
188,16,tooth,0.383592661005,right,1,correct,arm1,3,arm13,lion
189,16,crutches,1.05034535774,right,1,correct,decision,2,decision2,lion
190,16,stapler,0.550251177512,left,1,correct,arm2,1,arm21,lion
191,16,rose,0.183647780446,left,1,correct,arm2,2,arm22,lion
192,16,lion,0.200237986166,right,1,correct,arm2,3,arm23,lion
193,17,lion,0.267056729645,space,1,correct,target,NaN,targetNaN,lion
194,17,coffeepot,0.383613791084,right,1,correct,path,1,path1,lion
195,17,mosquito,0.23357868474,right,1,correct,path,2,path2,lion
196,17,canoe,0.233673770679,left,1,correct,path,3,path3,lion
197,17,goose,0.700031816028,right,1,correct,decision,1,decision1,lion
198,17,sailor,0.550259931479,right,1,correct,arm1,1,arm11,lion
199,17,cooker,0.166995391715,left,1,correct,arm1,2,arm12,lion
200,17,tooth,0.333548559342,right,1,correct,arm1,3,arm13,lion
201,17,crutches,0.550263251876,right,1,correct,decision,2,decision2,lion
202,17,stapler,0.466928862035,left,1,correct,arm2,1,arm21,lion
203,17,rose,0.183698794805,left,1,correct,arm2,2,arm22,lion
204,17,lion,0.150242483942,right,1,correct,arm2,3,arm23,lion
205,18,lion,0.233591966564,space,1,correct,target,NaN,targetNaN,lion
206,18,coffeepot,0.366917934734,right,1,correct,path,1,path1,lion
207,18,mosquito,0.166924454737,right,1,correct,path,2,path2,lion
208,18,canoe,0.133535458706,left,1,correct,path,3,path3,lion
209,18,goose,1.33357150061,left,1,correct,decision,1,decision1,lion
210,18,sailor,0.466920409817,right,1,correct,arm1,1,arm11,lion
211,18,cooker,0.200212026248,left,1,correct,arm1,2,arm12,lion
212,18,tooth,0.216919957194,right,1,correct,arm1,3,arm13,lion
213,18,crutches,0.58362960862,left,1,correct,decision,2,decision2,lion
214,18,stapler,0.516928892117,left,1,correct,arm2,1,arm21,lion
215,18,rose,0.166927473387,left,1,correct,arm2,2,arm22,lion
216,18,lion,0.43360536918,right,1,correct,arm2,3,arm23,lion
217,19,lion,0.766884971643,space,1,correct,target,NaN,targetNaN,lion
218,19,coffeepot,0.400354624493,right,1,correct,path,1,path1,lion
219,19,mosquito,0.216921466403,right,1,correct,path,2,path2,lion
220,19,canoe,0.283586261561,left,1,correct,path,3,path3,lion
221,19,goose,0.483636490768,right,1,correct,decision,1,decision1,lion
222,19,sailor,0.916700625792,right,1,correct,arm1,1,arm11,lion
223,19,cooker,0.233674374176,left,1,correct,arm1,2,arm12,lion
224,19,tooth,0.1502672364,right,1,correct,arm1,3,arm13,lion
225,19,crutches,0.46727147256,left,1,correct,decision,2,decision2,lion
226,19,stapler,0.733674676158,left,1,correct,arm2,1,arm21,lion
227,19,rose,0.250460184878,left,1,correct,arm2,2,arm22,lion
228,19,lion,0.133619375527,right,1,correct,arm2,3,arm23,lion
229,20,bolt,0.583632023539,space,1,correct,target,NaN,targetNaN,bolt
230,20,coffeepot,0.966909844661,right,1,correct,path,1,path1,bolt
231,20,mosquito,0.217571370304,right,1,correct,path,2,path2,bolt
232,20,canoe,0.112988174893,left,1,correct,path,3,path3,bolt
233,20,domino,0.583715034882,left,1,correct,decision,1,decision1,bolt
234,20,ambulance,1.21694893553,left,1,correct,arm1,1,arm11,bolt
235,20,trunk,0.466919806087,right,1,correct,arm1,2,arm12,bolt
236,20,peach,0.316936317831,right,1,correct,arm1,3,arm13,bolt
237,20,garlic,0.700326129096,right,1,correct,decision,2,decision2,bolt
238,20,mug,0.45030635735,left,1,correct,arm2,1,arm21,bolt
239,20,branch,0.183605520055,left,1,correct,arm2,2,arm22,bolt
240,20,bolt,0.283636973938,left,1,correct,arm2,3,arm23,bolt
241,21,bolt,0.266892216168,space,1,correct,target,NaN,targetNaN,bolt
242,21,coffeepot,0.383595377672,right,1,correct,path,1,path1,bolt
243,21,mosquito,0.16691811569,right,1,correct,path,2,path2,bolt
244,21,canoe,0.166904833866,left,1,correct,path,3,path3,bolt
245,21,domino,0.550281363539,right,1,correct,decision,1,decision1,bolt
246,21,ambulance,0.750310764415,left,1,correct,arm1,1,arm11,bolt
247,21,trunk,0.433778636623,right,1,correct,arm1,2,arm12,bolt
248,21,peach,0.333595951321,right,1,correct,arm1,3,arm13,bolt
249,21,garlic,0.516915308312,right,1,correct,decision,2,decision2,bolt
250,21,mug,0.433640686795,left,1,correct,arm2,1,arm21,bolt
251,21,branch,0.133667673217,left,1,correct,arm2,2,arm22,bolt
252,21,bolt,0.367101163371,left,1,correct,arm2,3,arm23,bolt
253,22,bolt,0.00050169066526,space,1,correct,target,NaN,targetNaN,bolt
254,22,coffeepot,0.416968375444,right,1,correct,path,1,path1,bolt
255,22,mosquito,0.200277227908,right,1,correct,path,2,path2,bolt
256,22,canoe,0.316911867354,left,1,correct,path,3,path3,bolt
257,22,domino,0.367125010351,right,1,correct,decision,1,decision1,bolt
258,22,ambulance,0.400465708924,left,1,correct,arm1,1,arm11,bolt
259,22,trunk,0.400257123867,right,1,correct,arm1,2,arm12,bolt
260,22,peach,0.266963153146,right,1,correct,arm1,3,arm13,bolt
261,22,garlic,0.450465135509,right,1,correct,decision,2,decision2,bolt
262,22,mug,0.433599935845,left,1,correct,arm2,1,arm21,bolt
263,22,branch,0.283589581959,left,1,correct,arm2,2,arm22,bolt
264,22,bolt,0.200260323938,left,1,correct,arm2,3,arm23,bolt
265,23,lion,0.300262497272,space,0,wrong,target,NaN,targetNaN,lion
266,23,coffeepot,0.983591513708,right,0,wrong,path,1,path1,lion
267,23,mosquito,0.250261259498,right,0,wrong,path,2,path2,lion
268,23,canoe,0.113797460683,left,0,wrong,path,3,path3,lion
269,23,domino,0.0336911578197,left,0,wrong,decision,1,decision1,lion
270,23,ambulance,2.11688789958,left,0,wrong,arm1,1,arm11,lion
271,23,trunk,0.166913587833,right,0,wrong,arm1,2,arm12,lion
272,23,peach,0.316931789974,right,0,wrong,arm1,3,arm13,lion
273,23,crutches,1.13361454592,left,0,wrong,decision,2,decision2,lion
274,23,stapler,0.533592751483,left,0,wrong,arm2,1,arm21,lion
275,23,rose,0.183574428782,left,0,wrong,arm2,2,arm22,lion
276,23,lion,0.383597188862,right,0,wrong,arm2,3,arm23,lion
277,24,bolt,2.45022213855,space,1,correct,target,NaN,targetNaN,bolt
278,24,coffeepot,0.583726505516,right,1,correct,path,1,path1,bolt
279,24,mosquito,0.383570927195,right,1,correct,path,2,path2,bolt
280,24,canoe,0.883566701086,left,1,correct,path,3,path3,bolt
281,24,domino,1.91708368575,right,1,correct,decision,1,decision1,bolt
282,24,ambulance,0.816927865846,left,1,correct,arm1,1,arm11,bolt
283,24,trunk,0.26691455394,right,1,correct,arm1,2,arm12,bolt
284,24,peach,0.500252354657,right,1,correct,arm1,3,arm13,bolt
285,24,garlic,0.383621941321,left,1,correct,decision,2,decision2,bolt
286,24,mug,0.483582759975,left,1,correct,arm2,1,arm21,bolt
287,24,branch,0.15022769291,left,1,correct,arm2,2,arm22,bolt
288,24,bolt,0.166912078392,left,1,correct,arm2,3,arm23,bolt
289,25,bolt,0.400260444498,space,1,correct,target,NaN,targetNaN,bolt
290,25,coffeepot,0.417076139245,right,1,correct,path,1,path1,bolt
291,25,mosquito,0.383705858374,right,1,correct,path,2,path2,bolt
292,25,canoe,1.50025808997,left,1,correct,path,3,path3,bolt
293,25,domino,0.383633713936,right,1,correct,decision,1,decision1,bolt
294,25,ambulance,0.850247132359,left,1,correct,arm1,1,arm11,bolt
295,25,trunk,0.366932725767,right,1,correct,arm1,2,arm12,bolt
296,25,peach,0.533594562672,right,1,correct,arm1,3,arm13,bolt
297,25,garlic,0.350279431557,right,1,correct,decision,2,decision2,bolt
298,25,mug,0.366926084738,left,1,correct,arm2,1,arm21,bolt
299,25,branch,0.133783587022,left,1,correct,arm2,2,arm22,bolt
300,25,bolt,0.183696380118,left,1,correct,arm2,3,arm23,bolt
301,26,lion,0.266980661079,space,1,correct,target,NaN,targetNaN,lion
302,26,coffeepot,0.516907460056,right,1,correct,path,1,path1,lion
303,26,mosquito,0.50024661934,right,1,correct,path,2,path2,lion
304,26,canoe,0.333658737829,left,1,correct,path,3,path3,lion
305,26,goose,0.483653093223,left,1,correct,decision,1,decision1,lion
306,26,sailor,0.616951591801,right,1,correct,arm1,1,arm11,lion
307,26,cooker,0.266945645446,left,1,correct,arm1,2,arm12,lion
308,26,tooth,0.233599815052,right,1,correct,arm1,3,arm13,lion
309,26,crutches,0.617001096951,left,1,correct,decision,2,decision2,lion
310,26,stapler,0.450313602109,left,1,correct,arm2,1,arm21,lion
311,26,rose,0.316897076089,left,1,correct,arm2,2,arm22,lion
312,26,lion,0.21695165243,right,1,correct,arm2,3,arm23,lion
313,27,lion,0.633590698708,space,1,correct,target,NaN,targetNaN,lion
314,27,coffeepot,0.500272881007,right,1,correct,path,1,path1,lion
315,27,mosquito,0.383772870991,right,1,correct,path,2,path2,lion
316,27,canoe,0.483563440852,left,1,correct,path,3,path3,lion
317,27,goose,0.55020499276,left,1,correct,decision,1,decision1,lion
318,27,sailor,0.483592117438,right,1,correct,arm1,1,arm11,lion
319,27,cooker,0.266999074491,left,1,correct,arm1,2,arm12,lion
320,27,tooth,0.250392870279,right,1,correct,arm1,3,arm13,lion
321,27,crutches,0.483644339256,left,1,correct,decision,2,decision2,lion
322,27,stapler,0.483674525283,left,1,correct,arm2,1,arm21,lion
323,27,rose,0.133555683075,left,1,correct,arm2,2,arm22,lion
324,27,lion,0.250321027823,right,1,correct,arm2,3,arm23,lion
325,28,bolt,0.333583574975,space,1,correct,target,NaN,targetNaN,bolt
326,28,coffeepot,0.400310251396,right,1,correct,path,1,path1,bolt
327,28,mosquito,0.300053308252,right,1,correct,path,2,path2,bolt
328,28,canoe,0.266736758407,left,1,correct,path,3,path3,bolt
329,28,domino,0.550345055759,left,1,correct,decision,1,decision1,bolt
330,28,ambulance,0.950440081069,left,1,correct,arm1,1,arm11,bolt
331,28,trunk,0.500259901164,right,1,correct,arm1,2,arm12,bolt
332,28,peach,0.650256369263,right,1,correct,arm1,3,arm13,bolt
333,28,garlic,0.833631570684,left,1,correct,decision,2,decision2,bolt
334,28,mug,0.516924062278,left,1,correct,arm2,1,arm21,bolt
335,28,branch,0.150202336488,left,1,correct,arm2,2,arm22,bolt
336,28,bolt,0.116925933864,left,1,correct,arm2,3,arm23,bolt
337,29,bolt,0.283705194248,space,1,correct,target,NaN,targetNaN,bolt
338,29,coffeepot,0.383599603781,right,1,correct,path,1,path1,bolt
339,29,mosquito,0.367275940254,right,1,correct,path,2,path2,bolt
340,29,canoe,0.40024957736,left,1,correct,path,3,path3,bolt
341,29,domino,0.383727893932,left,1,correct,decision,1,decision1,bolt
342,29,ambulance,0.650295309257,left,1,correct,arm1,1,arm11,bolt
343,29,trunk,0.283804506063,right,1,correct,arm1,2,arm12,bolt
344,29,peach,0.566983558936,right,1,correct,arm1,3,arm13,bolt
345,29,garlic,0.60030493862,right,1,correct,decision,2,decision2,bolt
346,29,mug,0.416921586962,left,1,correct,arm2,1,arm21,bolt
347,29,branch,0.266941117356,left,1,correct,arm2,2,arm22,bolt
348,29,bolt,0.250401322264,left,1,correct,arm2,3,arm23,bolt
349,30,bolt,0.200260927435,space,1,correct,target,NaN,targetNaN,bolt
350,30,coffeepot,0.366919745924,right,1,correct,path,1,path1,bolt
351,30,mosquito,0.300056628883,right,1,correct,path,2,path2,bolt
352,30,canoe,0.283563320059,left,1,correct,path,3,path3,bolt
353,30,domino,0.283711533295,left,1,correct,decision,1,decision1,bolt
354,30,ambulance,1.10028592148,left,1,correct,arm1,1,arm11,bolt
355,30,trunk,0.350329841953,right,1,correct,arm1,2,arm12,bolt
356,30,peach,0.266924213385,right,1,correct,arm1,3,arm13,bolt
357,30,garlic,0.600253622513,right,1,correct,decision,2,decision2,bolt
358,30,mug,0.367133462336,left,1,correct,arm2,1,arm21,bolt
359,30,branch,0.133598245448,left,1,correct,arm2,2,arm22,bolt
360,30,bolt,0.150264821481,left,1,correct,arm2,3,arm23,bolt
361,31,lion,1.01696934132,space,1,correct,target,NaN,targetNaN,lion
362,31,coffeepot,0.566914734896,right,1,correct,path,1,path1,lion
363,31,mosquito,0.41690860712,right,1,correct,path,2,path2,lion
364,31,canoe,0.416927624494,left,1,correct,path,3,path3,lion
365,31,goose,0.300383844646,right,1,correct,decision,1,decision1,lion
366,31,sailor,0.983575515449,right,1,correct,arm1,1,arm11,lion
367,31,cooker,0.483812173363,left,1,correct,arm1,2,arm12,lion
368,31,tooth,0.683617292671,right,1,correct,arm1,3,arm13,lion
369,31,crutches,1.06697571068,right,1,correct,decision,2,decision2,lion
370,31,stapler,0.400259237038,left,1,correct,arm2,1,arm21,lion
371,31,rose,0.150359303458,left,1,correct,arm2,2,arm22,lion
372,31,lion,0.366969250841,right,1,correct,arm2,3,arm23,lion
373,32,bolt,0.633618168067,space,1,correct,target,NaN,targetNaN,bolt
374,32,coffeepot,0.466996780364,right,1,correct,path,1,path1,bolt
375,32,mosquito,0.366908576805,right,1,correct,path,2,path2,bolt
376,32,canoe,0.750249486882,left,1,correct,path,3,path3,bolt
377,32,domino,1.16701139021,left,1,correct,decision,1,decision1,bolt
378,32,ambulance,0.584069719771,left,1,correct,arm1,1,arm11,bolt
379,32,trunk,0.416928227991,right,1,correct,arm1,2,arm12,bolt
380,32,peach,0.350248339819,right,1,correct,arm1,3,arm13,bolt
381,32,garlic,0.616944347508,right,1,correct,decision,2,decision2,bolt
382,32,mug,0.333585084183,left,1,correct,arm2,1,arm21,bolt
383,32,branch,0.133586774813,left,1,correct,arm2,2,arm22,bolt
384,32,bolt,0.166951622115,left,1,correct,arm2,3,arm23,bolt
385,33,bolt,0.68357835291,space,-1,miss,target,NaN,targetNaN,bolt
386,33,coffeepot,0.883604433388,right,-1,miss,path,1,path1,bolt
387,33,mosquito,0.750251902035,right,-1,miss,path,2,path2,bolt
388,33,canoe,0.400277952198,left,-1,miss,path,3,path3,bolt
389,33,goose,2.23367739306,right,-1,miss,decision,1,decision1,bolt
390,33,sailor,0.750230167992,right,-1,miss,arm1,1,arm11,bolt
391,33,cooker,0.333579047117,left,-1,miss,arm1,2,arm12,bolt
392,33,tooth,0.316968315048,right,-1,miss,arm1,3,arm13,bolt
393,33,crutches,0.383595377672,right,-1,miss,decision,2,decision2,bolt
394,33,stapler,0.400077215629,left,-1,miss,arm2,1,arm21,bolt
395,33,rose,0.150240370771,left,-1,miss,arm2,2,arm22,bolt
396,33,lion,0.433635856956,right,-1,miss,arm2,3,arm23,bolt
397,34,bolt,0.400286102435,space,1,correct,target,NaN,targetNaN,bolt
398,34,coffeepot,0.40023025847,right,1,correct,path,1,path1,bolt
399,34,mosquito,0.20025126799,right,1,correct,path,2,path2,bolt
400,34,canoe,0.26684361673,left,1,correct,path,3,path3,bolt
401,34,domino,0.566962126875,left,1,correct,decision,1,decision1,bolt
402,34,ambulance,0.483606606955,left,1,correct,arm1,1,arm11,bolt
403,34,trunk,0.233572949655,right,1,correct,arm1,2,arm12,bolt
404,34,peach,0.366910388228,right,1,correct,arm1,3,arm13,bolt
405,34,garlic,0.933615028858,left,1,correct,decision,2,decision2,bolt
406,34,mug,0.333673831075,left,1,correct,arm2,1,arm21,bolt
407,34,branch,0.16692053061,left,1,correct,arm2,2,arm22,bolt
408,34,bolt,0.133555683075,left,1,correct,arm2,3,arm23,bolt
409,35,lion,0.366952346638,space,1,correct,target,NaN,targetNaN,lion
410,35,coffeepot,0.50024601561,right,1,correct,path,1,path1,lion
411,35,mosquito,0.266926024575,right,1,correct,path,2,path2,lion
412,35,canoe,0.300327095203,left,1,correct,path,3,path3,lion
413,35,goose,0.366999738617,right,1,correct,decision,1,decision1,lion
414,35,sailor,0.750238318229,right,1,correct,arm1,1,arm11,lion
415,35,cooker,0.350265546003,left,1,correct,arm1,2,arm12,lion
416,35,tooth,0.466726314276,right,1,correct,arm1,3,arm13,lion
417,35,crutches,0.81689284998,right,1,correct,decision,2,decision2,lion
418,35,stapler,0.383609866956,left,1,correct,arm2,1,arm21,lion
419,35,rose,0.133611527272,left,1,correct,arm2,2,arm22,lion
420,35,lion,0.533551396569,right,1,correct,arm2,3,arm23,lion
421,36,lion,0.350468093762,space,1,correct,target,NaN,targetNaN,lion
422,36,coffeepot,0.466977763223,right,1,correct,path,1,path1,lion
423,36,mosquito,0.316981295124,right,1,correct,path,2,path2,lion
424,36,canoe,0.433590879897,left,1,correct,path,3,path3,lion
425,36,goose,0.400317495922,left,1,correct,decision,1,decision1,lion
426,36,sailor,0.683563561644,right,1,correct,arm1,1,arm11,lion
427,36,cooker,0.383616809733,left,1,correct,arm1,2,arm12,lion
428,36,tooth,0.417068894487,right,1,correct,arm1,3,arm13,lion
429,36,crutches,1.13361394196,right,1,correct,decision,2,decision2,lion
430,36,stapler,0.367140706861,left,1,correct,arm2,1,arm21,lion
431,36,rose,0.250531423837,left,1,correct,arm2,2,arm22,lion
432,36,lion,0.533597279573,right,1,correct,arm2,3,arm23,lion
433,37,lion,0.900354322745,space,1,correct,target,NaN,targetNaN,lion
434,37,coffeepot,0.516910478706,right,1,correct,path,1,path1,lion
435,37,mosquito,0.3669239718,right,1,correct,path,2,path2,lion
436,37,canoe,0.366907369578,left,1,correct,path,3,path3,lion
437,37,goose,0.250423358055,right,1,correct,decision,1,decision1,lion
438,37,sailor,1.80030173901,right,1,correct,arm1,1,arm11,lion
439,37,cooker,0.333592932671,left,1,correct,arm1,2,arm12,lion
440,37,tooth,0.300264308229,right,1,correct,arm1,3,arm13,lion
441,37,crutches,0.583955013193,right,1,correct,decision,2,decision2,lion
442,37,stapler,0.400370924966,left,1,correct,arm2,1,arm21,lion
443,37,rose,0.183835537173,left,1,correct,arm2,2,arm22,lion
444,37,lion,0.216932635056,right,1,correct,arm2,3,arm23,lion
445,38,bolt,0.333584480686,space,1,correct,target,NaN,targetNaN,bolt
446,38,coffeepot,0.933575787116,right,1,correct,path,1,path1,bolt
447,38,mosquito,0.283588374499,right,1,correct,path,2,path2,bolt
448,38,canoe,0.114168446045,left,1,correct,path,3,path3,bolt
449,38,domino,0.666931095766,left,1,correct,decision,1,decision1,bolt
450,38,ambulance,1.38370706583,left,1,correct,arm1,1,arm11,bolt
451,38,trunk,0.38371249917,right,1,correct,arm1,2,arm12,bolt
452,38,peach,0.466990743065,right,1,correct,arm1,3,arm13,bolt
453,38,garlic,0.666938944021,right,1,correct,decision,2,decision2,bolt
454,38,mug,0.417076441227,left,1,correct,arm2,1,arm21,bolt
455,38,branch,0.150417864323,left,1,correct,arm2,2,arm22,bolt
456,38,bolt,0.200302282115,left,1,correct,arm2,3,arm23,bolt
457,39,lion,0.350287883542,space,1,correct,target,NaN,targetNaN,lion
458,39,coffeepot,0.333587499103,right,1,correct,path,1,path1,lion
459,39,mosquito,0.400270103943,right,1,correct,path,2,path2,lion
460,39,canoe,0.383672653697,left,1,correct,path,3,path3,lion
461,39,goose,0.417010333855,left,1,correct,decision,1,decision1,lion
462,39,sailor,1.2500255073,right,1,correct,arm1,1,arm11,lion
463,39,cooker,0.666917210212,left,1,correct,arm1,2,arm12,lion
464,39,tooth,0.566881228471,right,1,correct,arm1,3,arm13,lion
465,39,crutches,1.1667478669,left,1,correct,decision,2,decision2,lion
466,39,stapler,0.383659371873,left,1,correct,arm2,1,arm21,lion
467,39,rose,0.167084440356,left,1,correct,arm2,2,arm22,lion
468,39,lion,0.300698684296,right,1,correct,arm2,3,arm23,lion
469,40,lion,0.583598215133,space,1,correct,target,NaN,targetNaN,lion
470,40,coffeepot,1.18386361026,right,1,correct,path,1,path1,lion
471,40,mosquito,0.550258723786,right,1,correct,path,2,path2,lion
472,40,canoe,0.417081874562,left,1,correct,path,3,path3,lion
473,40,goose,0.583713525441,left,1,correct,decision,1,decision1,lion
474,40,sailor,0.716917844256,right,1,correct,arm1,1,arm11,lion
475,40,cooker,0.366934536956,left,1,correct,arm1,2,arm12,lion
476,40,tooth,0.333625835134,right,1,correct,arm1,3,arm13,lion
477,40,crutches,1.3003068706,right,1,correct,decision,2,decision2,lion
478,40,stapler,0.400296063861,left,1,correct,arm2,1,arm21,lion
479,40,rose,0.167002938222,left,1,correct,arm2,2,arm22,lion
480,40,lion,0.183618802112,right,1,correct,arm2,3,arm23,lion
481,41,lion,0.516987754963,space,1,correct,target,NaN,targetNaN,lion
482,41,coffeepot,0.500335969729,right,1,correct,path,1,path1,lion
483,41,mosquito,0.400329268537,right,1,correct,path,2,path2,lion
484,41,canoe,0.500336875441,left,1,correct,path,3,path3,lion
485,41,goose,0.467050813371,left,1,correct,decision,1,decision1,lion
486,41,sailor,1.01700616814,right,1,correct,arm1,1,arm11,lion
487,41,cooker,0.300363922026,left,1,correct,arm1,2,arm12,lion
488,41,tooth,0.250385625521,right,1,correct,arm1,3,arm13,lion
489,41,crutches,0.383774682414,left,1,correct,decision,2,decision2,lion
490,41,stapler,0.500375211705,left,1,correct,arm2,1,arm21,lion
491,41,rose,0.233665016713,left,1,correct,arm2,2,arm22,lion
492,41,lion,0.283729342977,right,1,correct,arm2,3,arm23,lion
493,42,bolt,0.633623601636,space,1,correct,target,NaN,targetNaN,bolt
494,42,coffeepot,0.383588132914,right,1,correct,path,1,path1,bolt
495,42,mosquito,0.250238016248,right,1,correct,path,2,path2,bolt
496,42,canoe,0.383600509493,left,1,correct,path,3,path3,bolt
497,42,domino,1.13360066013,left,1,correct,decision,1,decision1,bolt
498,42,ambulance,1.23354849895,left,1,correct,arm1,1,arm11,bolt
499,42,trunk,0.333608025685,right,1,correct,arm1,2,arm12,bolt
500,42,peach,0.416950867511,right,1,correct,arm1,3,arm13,bolt
501,42,garlic,0.250338535756,right,1,correct,decision,2,decision2,bolt
502,42,mug,0.416932756081,left,1,correct,arm2,1,arm21,bolt
503,42,branch,0.150323985843,left,1,correct,arm2,2,arm22,bolt
504,42,bolt,0.216968858382,left,1,correct,arm2,3,arm23,bolt
505,43,bolt,0.517008583061,space,1,correct,target,NaN,targetNaN,bolt
506,43,coffeepot,0.366923670052,right,1,correct,path,1,path1,bolt
507,43,mosquito,0.233740179799,right,1,correct,path,2,path2,bolt
508,43,canoe,0.266954701161,left,1,correct,path,3,path3,bolt
509,43,domino,0.550386410439,right,1,correct,decision,1,decision1,bolt
510,43,ambulance,1.13367431401,left,1,correct,arm1,1,arm11,bolt
511,43,trunk,0.400291536003,right,1,correct,arm1,2,arm12,bolt
512,43,peach,0.600304033142,right,1,correct,arm1,3,arm13,bolt
513,43,garlic,0.333726052893,right,1,correct,decision,2,decision2,bolt
514,43,mug,0.366961402353,left,1,correct,arm2,1,arm21,bolt
515,43,branch,0.133558701724,left,1,correct,arm2,2,arm22,bolt
516,43,bolt,0.383615300525,left,1,correct,arm2,3,arm23,bolt
517,44,lion,0.533632295206,space,1,correct,target,NaN,targetNaN,lion
518,44,coffeepot,0.500216433313,right,1,correct,path,1,path1,lion
519,44,mosquito,0.266977944411,right,1,correct,path,2,path2,lion
520,44,canoe,0.266902177595,left,1,correct,path,3,path3,lion
521,44,goose,0.233674374409,right,1,correct,decision,1,decision1,lion
522,44,sailor,0.583652851637,right,1,correct,arm1,1,arm11,lion
523,44,cooker,0.300406182185,left,1,correct,arm1,2,arm12,lion
524,44,tooth,0.250254316721,right,1,correct,arm1,3,arm13,lion
525,44,crutches,0.917029652745,left,1,correct,decision,2,decision2,lion
526,44,stapler,0.366779984906,left,1,correct,arm2,1,arm21,lion
527,44,rose,0.166926869657,left,1,correct,arm2,2,arm22,lion
528,44,lion,0.166895778151,right,1,correct,arm2,3,arm23,lion
529,45,lion,0.466928258073,space,1,correct,target,NaN,targetNaN,lion
530,45,coffeepot,0.300217520213,right,1,correct,path,1,path1,lion
531,45,mosquito,0.233592570527,right,1,correct,path,2,path2,lion
532,45,canoe,0.933572768467,left,1,correct,path,3,path3,lion
533,45,goose,0.333816308761,right,1,correct,decision,1,decision1,lion
534,45,sailor,0.566923187114,right,1,correct,arm1,1,arm11,lion
535,45,cooker,0.233725690516,left,1,correct,arm1,2,arm12,lion
536,45,tooth,0.283579620533,right,1,correct,arm1,3,arm13,lion
537,45,crutches,0.23384915106,left,1,correct,decision,2,decision2,lion
538,45,stapler,0.383625563467,left,1,correct,arm2,1,arm21,lion
539,45,rose,0.133590396959,left,1,correct,arm2,2,arm22,lion
540,45,lion,0.250323140761,right,1,correct,arm2,3,arm23,lion
541,46,bolt,0.43371796282,space,1,correct,target,NaN,targetNaN,bolt
542,46,coffeepot,0.233585627517,right,1,correct,path,1,path1,bolt
543,46,mosquito,0.233770969324,right,1,correct,path,2,path2,bolt
544,46,canoe,0.250275748782,left,1,correct,path,3,path3,bolt
545,46,domino,0.233745311387,right,1,correct,decision,1,decision1,bolt
546,46,ambulance,0.966962368228,left,1,correct,arm1,1,arm11,bolt
547,46,trunk,0.216933540767,right,1,correct,arm1,2,arm12,bolt
548,46,peach,0.300261591561,right,1,correct,arm1,3,arm13,bolt
549,46,garlic,0.350314748939,left,1,correct,decision,2,decision2,bolt
550,46,mug,0.333598667756,left,1,correct,arm2,1,arm21,bolt
551,46,branch,0.150242483709,left,1,correct,arm2,2,arm22,bolt
552,46,bolt,0.200258512516,left,1,correct,arm2,3,arm23,bolt
553,47,bolt,0.383591151563,space,1,correct,target,NaN,targetNaN,bolt
554,47,coffeepot,0.383610470686,right,1,correct,path,1,path1,bolt
555,47,mosquito,0.283583846642,right,1,correct,path,2,path2,bolt
556,47,canoe,0.300276080845,left,1,correct,path,3,path3,bolt
557,47,domino,0.283636370208,left,1,correct,decision,1,decision1,bolt
558,47,ambulance,1.01693492942,left,1,correct,arm1,1,arm11,bolt
559,47,trunk,0.300265515689,right,1,correct,arm1,2,arm12,bolt
560,47,peach,0.400247464422,right,1,correct,arm1,3,arm13,bolt
561,47,garlic,1.28364723711,right,1,correct,decision,2,decision2,bolt
562,47,mug,0.350264640292,left,1,correct,arm2,1,arm21,bolt
563,47,branch,0.33357210434,left,1,correct,arm2,2,arm22,bolt
564,47,bolt,0.566923186881,left,1,correct,arm2,3,arm23,bolt
565,48,lion,0.750225941883,space,1,correct,target,NaN,targetNaN,lion
566,48,coffeepot,0.250273333862,right,1,correct,path,1,path1,lion
567,48,mosquito,0.283574790927,right,1,correct,path,2,path2,lion
568,48,canoe,0.26691002585,left,1,correct,path,3,path3,lion
569,48,goose,0.400260746479,right,1,correct,decision,1,decision1,lion
570,48,sailor,0.433584842831,right,1,correct,arm1,1,arm11,lion
571,48,cooker,0.300263100769,left,1,correct,arm1,2,arm12,lion
572,48,tooth,0.216893393314,right,1,correct,arm1,3,arm13,lion
573,48,crutches,0.717028626706,right,1,correct,decision,2,decision2,lion
574,48,stapler,0.350278827595,left,1,correct,arm2,1,arm21,lion
575,48,rose,0.200285378145,left,1,correct,arm2,2,arm22,lion
576,48,lion,0.316898585297,right,1,correct,arm2,3,arm23,lion
577,49,bolt,0.350318975048,space,1,correct,target,NaN,targetNaN,bolt
578,49,coffeepot,0.350234756246,right,1,correct,path,1,path1,bolt
579,49,mosquito,0.383653938537,right,1,correct,path,2,path2,bolt
580,49,canoe,0.350231435848,left,1,correct,path,3,path3,bolt
581,49,domino,0.466993459966,left,1,correct,decision,1,decision1,bolt
582,49,ambulance,0.950230590533,left,1,correct,arm1,1,arm11,bolt
583,49,trunk,0.250252505532,right,1,correct,arm1,2,arm12,bolt
584,49,peach,0.28360980656,right,1,correct,arm1,3,arm13,bolt
585,49,garlic,0.600329691079,left,1,correct,decision,2,decision2,bolt
586,49,mug,0.566953373142,left,1,correct,arm2,1,arm21,bolt
587,49,branch,0.366913708625,left,1,correct,arm2,2,arm22,bolt
588,49,bolt,0.516925269971,left,1,correct,arm2,3,arm23,bolt
589,50,bolt,0.433610802749,space,1,correct,target,NaN,targetNaN,bolt
590,50,coffeepot,0.400373339886,right,1,correct,path,1,path1,bolt
591,50,mosquito,0.766927533783,right,1,correct,path,2,path2,bolt
592,50,canoe,0.11353333341,left,1,correct,path,3,path3,bolt
593,50,domino,0.483652791474,left,1,correct,decision,1,decision1,bolt
594,50,ambulance,1.35025709402,left,1,correct,arm1,1,arm11,bolt
595,50,trunk,0.250258240849,right,1,correct,arm1,2,arm12,bolt
596,50,peach,0.333598969737,right,1,correct,arm1,3,arm13,bolt
597,50,garlic,0.800293287029,right,1,correct,decision,2,decision2,bolt
598,50,mug,0.400518534472,left,1,correct,arm2,1,arm21,bolt
599,50,branch,0.083630212117,left,1,correct,arm2,2,arm22,bolt
600,50,bolt,0.167038859567,left,1,correct,arm2,3,arm23,bolt
