pic_index,trial_num,pic_name,rt,resp,feedback_code,feedback,segment,segment_index,pic_type,trial_target
1,1,beaver,4.26686474704,space,-1,miss,target,NaN,targetNaN,beaver
2,1,trophy,1.81691035791,right,-1,miss,path,1,path1,beaver
3,1,astronaut,0.550221897196,left,-1,miss,path,2,path2,beaver
4,1,robot,0.616904501803,left,-1,miss,path,3,path3,beaver
5,1,pigeon,1.28354037879,left,-1,miss,decision,1,decision1,beaver
6,1,bus,0.833601686638,left,-1,miss,arm1,1,arm11,beaver
7,1,deer,0.566918961005,right,-1,miss,arm1,2,arm12,beaver
8,1,fist,0.766945041483,right,-1,miss,arm1,3,arm13,beaver
9,1,holly,2.06690386799,right,-1,miss,decision,2,decision2,beaver
10,1,match,2.63356081466,left,-1,miss,arm2,1,arm21,beaver
11,1,baby,0.683605218306,right,-1,miss,arm2,2,arm22,beaver
12,1,arc,0.450276775053,right,-1,miss,arm2,3,arm23,beaver
13,2,beaver,0.400321722031,space,1,correct,target,NaN,targetNaN,beaver
14,2,trophy,0.983602682827,right,1,correct,path,1,path1,beaver
15,2,astronaut,0.250277559971,left,1,correct,path,2,path2,beaver
16,2,robot,0.400264066877,left,1,correct,path,3,path3,beaver
17,2,pigeon,1.45026288973,right,1,correct,decision,1,decision1,beaver
18,2,bus,1.0169527391,left,1,correct,arm1,1,arm11,beaver
19,2,deer,0.400237503229,right,1,correct,arm1,2,arm12,beaver
20,2,fist,0.400255614659,right,1,correct,arm1,3,arm13,beaver
21,2,stepladder,0.716954671079,right,1,correct,decision,2,decision2,beaver
22,2,calc,0.900314477272,left,1,correct,arm2,1,arm21,beaver
23,2,tongue,0.766991527984,left,1,correct,arm2,2,arm22,beaver
24,2,beaver,0.750231979182,right,1,correct,arm2,3,arm23,beaver
25,3,arc,1.68399431533,space,1,correct,target,NaN,targetNaN,arc
26,3,trophy,0.700252173701,right,1,correct,path,1,path1,arc
27,3,astronaut,0.300267930608,left,1,correct,path,2,path2,arc
28,3,robot,0.416897740215,left,1,correct,path,3,path3,arc
29,3,watch,0.384395909496,left,1,correct,decision,1,decision1,arc
30,3,clover,1.23413803079,right,1,correct,arm1,1,arm11,arc
31,3,radio,0.633602169575,left,1,correct,arm1,2,arm12,arc
32,3,wing,1.76704737195,right,1,correct,arm1,3,arm13,arc
33,3,holly,1.2502875214,right,1,correct,decision,2,decision2,arc
34,3,match,0.566987784812,left,1,correct,arm2,1,arm21,arc
35,3,baby,0.400267387275,right,1,correct,arm2,2,arm22,arc
36,3,arc,0.350243208231,right,1,correct,arm2,3,arm23,arc
37,4,arc,0.583587951958,space,1,correct,target,NaN,targetNaN,arc
38,4,trophy,0.416994335363,right,1,correct,path,1,path1,arc
39,4,astronaut,0.316913074581,left,1,correct,path,2,path2,arc
40,4,robot,0.267491709441,left,1,correct,path,3,path3,arc
41,4,watch,0.783635162748,right,1,correct,decision,1,decision1,arc
42,4,clover,0.933585748542,right,1,correct,arm1,1,arm11,arc
43,4,radio,0.450335939648,left,1,correct,arm1,2,arm12,arc
44,4,wing,0.700238589896,right,1,correct,arm1,3,arm13,arc
45,4,holly,0.86696653394,left,1,correct,decision,2,decision2,arc
46,4,match,0.566941600293,left,1,correct,arm2,1,arm21,arc
47,4,baby,0.316919413861,right,1,correct,arm2,2,arm22,arc
48,4,arc,0.250519953202,right,1,correct,arm2,3,arm23,arc
49,5,beaver,0.750289634336,space,1,correct,target,NaN,targetNaN,beaver
50,5,trophy,0.500253562117,right,1,correct,path,1,path1,beaver
51,5,astronaut,0.316911263624,left,1,correct,path,2,path2,beaver
52,5,robot,0.383757778211,left,1,correct,path,3,path3,beaver
53,5,pigeon,1.56709011528,left,1,correct,decision,1,decision1,beaver
54,5,bus,0.567053590203,left,1,correct,arm1,1,arm11,beaver
55,5,deer,0.28358595958,right,1,correct,arm1,2,arm12,beaver
56,5,fist,0.33390686661,right,1,correct,arm1,3,arm13,beaver
57,5,stepladder,0.667143001221,left,1,correct,decision,2,decision2,beaver
58,5,calc,0.616943441797,left,1,correct,arm2,1,arm21,beaver
59,5,tongue,0.500310915522,left,1,correct,arm2,2,arm22,beaver
60,5,beaver,0.450286434498,right,1,correct,arm2,3,arm23,beaver
61,6,arc,0.483706220519,space,1,correct,target,NaN,targetNaN,arc
62,6,trophy,0.466932182433,right,1,correct,path,1,path1,arc
63,6,astronaut,0.333578443388,left,1,correct,path,2,path2,arc
64,6,robot,0.367333897389,left,1,correct,path,3,path3,arc
65,6,watch,1.31727440073,left,1,correct,decision,1,decision1,arc
66,6,clover,2.43352809316,right,1,correct,arm1,1,arm11,arc
67,6,radio,0.38411306683,left,1,correct,arm1,2,arm12,arc
68,6,wing,0.383902067086,right,1,correct,arm1,3,arm13,arc
69,6,holly,0.600255131721,left,1,correct,decision,2,decision2,arc
70,6,match,0.500283446163,left,1,correct,arm2,1,arm21,arc
71,6,baby,0.350485903444,right,1,correct,arm2,2,arm22,arc
72,6,arc,0.767467560712,right,1,correct,arm2,3,arm23,arc
73,7,beaver,0.617042451631,space,1,correct,target,NaN,targetNaN,beaver
74,7,trophy,0.350597893354,right,1,correct,path,1,path1,beaver
75,7,astronaut,0.35027248878,left,1,correct,path,2,path2,beaver
76,7,robot,0.483617775608,left,1,correct,path,3,path3,beaver
77,7,pigeon,1.1169872114,right,1,correct,decision,1,decision1,beaver
78,7,bus,1.63372502639,left,1,correct,arm1,1,arm11,beaver
79,7,deer,0.400262557436,right,1,correct,arm1,2,arm12,beaver
80,7,fist,0.350259508705,right,1,correct,arm1,3,arm13,beaver
81,7,stepladder,0.700292924419,left,1,correct,decision,2,decision2,beaver
82,7,calc,1.55036829878,left,1,correct,arm2,1,arm21,beaver
83,7,tongue,0.500225489028,left,1,correct,arm2,2,arm22,beaver
84,7,beaver,0.450289453147,right,1,correct,arm2,3,arm23,beaver
85,8,beaver,1.31690854672,space,1,correct,target,NaN,targetNaN,beaver
86,8,trophy,0.750271220924,right,1,correct,path,1,path1,beaver
87,8,astronaut,0.250470750034,left,1,correct,path,2,path2,beaver
88,8,robot,0.333629155764,left,1,correct,path,3,path3,beaver
89,8,pigeon,0.300251328386,right,1,correct,decision,1,decision1,beaver
90,8,bus,0.900335305836,left,1,correct,arm1,1,arm11,beaver
91,8,deer,0.33359263069,right,1,correct,arm1,2,arm12,beaver
92,8,fist,0.233611889416,right,1,correct,arm1,3,arm13,beaver
93,8,stepladder,0.300340980524,left,1,correct,decision,2,decision2,beaver
94,8,calc,0.416904079262,left,1,correct,arm2,1,arm21,beaver
95,8,tongue,0.416922190925,left,1,correct,arm2,2,arm22,beaver
96,8,beaver,0.233614002354,right,1,correct,arm2,3,arm23,beaver
97,9,arc,0.650259991642,space,1,correct,target,NaN,targetNaN,arc
98,9,trophy,0.350235661725,right,1,correct,path,1,path1,arc
99,9,astronaut,0.250275748782,left,1,correct,path,2,path2,arc
100,9,robot,0.283565735212,left,1,correct,path,3,path3,arc
101,9,watch,0.366892578546,left,1,correct,decision,1,decision1,arc
102,9,clover,0.850240491563,right,1,correct,arm1,1,arm11,arc
103,9,radio,0.316928167595,left,1,correct,arm1,2,arm12,arc
104,9,wing,0.500436790986,right,1,correct,arm1,3,arm13,arc
105,9,holly,0.566980842268,left,1,correct,decision,2,decision2,arc
106,9,match,0.433590578148,left,1,correct,arm2,1,arm21,arc
107,9,baby,0.350245623151,right,1,correct,arm2,2,arm22,arc
108,9,arc,0.61691204831,right,1,correct,arm2,3,arm23,arc
109,10,beaver,0.566975106718,space,1,correct,target,NaN,targetNaN,beaver
110,10,trophy,0.233557856642,right,1,correct,path,1,path1,beaver
111,10,astronaut,0.366920953151,left,1,correct,path,2,path2,beaver
112,10,robot,0.500247524818,left,1,correct,path,3,path3,beaver
113,10,pigeon,0.750312877586,right,1,correct,decision,1,decision1,beaver
114,10,bus,0.500271975528,left,1,correct,arm1,1,arm11,beaver
115,10,deer,0.250070786104,right,1,correct,arm1,2,arm12,beaver
116,10,fist,0.283596826484,right,1,correct,arm1,3,arm13,beaver
117,10,stepladder,0.616976646241,right,1,correct,decision,2,decision2,beaver
118,10,calc,0.366924575763,left,1,correct,arm2,1,arm21,beaver
119,10,tongue,0.500271673547,left,1,correct,arm2,2,arm22,beaver
120,10,beaver,0.300248309737,right,1,correct,arm2,3,arm23,beaver
121,11,arc,1.28391891089,space,1,correct,target,NaN,targetNaN,arc
122,11,trophy,0.366926688468,right,1,correct,path,1,path1,arc
123,11,astronaut,0.200242212275,left,1,correct,path,2,path2,arc
124,11,robot,0.26691123331,left,1,correct,path,3,path3,arc
125,11,watch,0.717068472179,left,1,correct,decision,1,decision1,arc
126,11,clover,0.933577900054,right,1,correct,arm1,1,arm11,arc
127,11,radio,0.300248913467,left,1,correct,arm1,2,arm12,arc
128,11,wing,0.450248400215,right,1,correct,arm1,3,arm13,arc
129,11,holly,1.08364289044,right,1,correct,decision,2,decision2,arc
130,11,match,0.416745602852,left,1,correct,arm2,1,arm21,arc
131,11,baby,0.516931005055,right,1,correct,arm2,2,arm22,arc
132,11,arc,0.333597460529,right,1,correct,arm2,3,arm23,arc
133,12,arc,0.650246709818,space,1,correct,target,NaN,targetNaN,arc
134,12,trophy,0.4502393445,right,1,correct,path,1,path1,arc
135,12,astronaut,0.35024984926,left,1,correct,path,2,path2,arc
136,12,robot,0.450434647733,left,1,correct,path,3,path3,arc
137,12,watch,0.883635524893,left,1,correct,decision,1,decision1,arc
138,12,clover,0.80037267576,right,1,correct,arm1,1,arm11,arc
139,12,radio,0.616925028386,left,1,correct,arm1,2,arm12,arc
140,12,wing,0.483607814414,right,1,correct,arm1,3,arm13,arc
141,12,holly,0.500460335985,left,1,correct,decision,2,decision2,arc
142,12,match,0.366925481008,left,1,correct,arm2,1,arm21,arc
143,12,baby,0.350238076644,right,1,correct,arm2,2,arm22,arc
144,12,arc,0.233597702114,right,1,correct,arm2,3,arm23,arc
145,13,arc,0.766966171796,space,1,correct,target,NaN,targetNaN,arc
146,13,trophy,0.483595136087,right,1,correct,path,1,path1,arc
147,13,astronaut,0.283591996878,left,1,correct,path,2,path2,arc
148,13,robot,0.333566670772,left,1,correct,path,3,path3,arc
149,13,watch,1.36693846108,right,1,correct,decision,1,decision1,arc
150,13,clover,0.633738308214,right,1,correct,arm1,1,arm11,arc
151,13,radio,0.366993701318,left,1,correct,arm1,2,arm12,arc
152,13,wing,0.316941449651,right,1,correct,arm1,3,arm13,arc
153,13,holly,0.850283657433,right,1,correct,decision,2,decision2,arc
154,13,match,0.400230560452,left,1,correct,arm2,1,arm21,arc
155,13,baby,0.333656625124,right,1,correct,arm2,2,arm22,arc
156,13,arc,0.200375030283,right,1,correct,arm2,3,arm23,arc
157,14,beaver,0.633605489973,space,1,correct,target,NaN,targetNaN,beaver
158,14,trophy,0.866905860137,right,1,correct,path,1,path1,beaver
159,14,astronaut,0.266918780049,left,1,correct,path,2,path2,beaver
160,14,robot,0.366705727298,left,1,correct,path,3,path3,beaver
161,14,pigeon,0.41700007068,left,1,correct,decision,1,decision1,beaver
162,14,bus,0.483574609738,left,1,correct,arm1,1,arm11,beaver
163,14,deer,0.300246196799,right,1,correct,arm1,2,arm12,beaver
164,14,fist,0.350275205448,right,1,correct,arm1,3,arm13,beaver
165,14,stepladder,0.70025006053,right,1,correct,decision,2,decision2,beaver
166,14,calc,0.383586925687,left,1,correct,arm2,1,arm21,beaver
167,14,tongue,0.400281574577,left,1,correct,arm2,2,arm22,beaver
168,14,beaver,0.266913044499,right,1,correct,arm2,3,arm23,beaver
169,15,beaver,0.267178077251,space,1,correct,target,NaN,targetNaN,beaver
170,15,trophy,0.367031433852,right,1,correct,path,1,path1,beaver
171,15,astronaut,0.933592993068,left,1,correct,path,2,path2,beaver
172,15,robot,0.300252837827,left,1,correct,path,3,path3,beaver
173,15,pigeon,0.483599664178,right,1,correct,decision,1,decision1,beaver
174,15,bus,0.550558470422,left,1,correct,arm1,1,arm11,beaver
175,15,deer,0.30064706644,right,1,correct,arm1,2,arm12,beaver
176,15,fist,0.300343093695,right,1,correct,arm1,3,arm13,beaver
177,15,stepladder,0.766698422376,right,1,correct,decision,2,decision2,beaver
178,15,calc,0.333549766568,left,1,correct,arm2,1,arm21,beaver
179,15,tongue,0.283609504811,left,1,correct,arm2,2,arm22,beaver
180,15,beaver,0.200230137678,right,1,correct,arm2,3,arm23,beaver
181,16,arc,0.21692780545,space,1,correct,target,NaN,targetNaN,arc
182,16,trophy,0.350229926407,right,1,correct,path,1,path1,arc
183,16,astronaut,0.283591996878,left,1,correct,path,2,path2,arc
184,16,robot,0.283567546401,left,1,correct,path,3,path3,arc
185,16,watch,0.350235661957,left,1,correct,decision,1,decision1,arc
186,16,clover,0.650365039008,right,1,correct,arm1,1,arm11,arc
187,16,radio,0.26693447656,left,1,correct,arm1,2,arm12,arc
188,16,wing,0.333384649595,right,1,correct,arm1,3,arm13,arc
189,16,holly,0.600305844098,right,1,correct,decision,2,decision2,arc
190,16,match,0.383372001583,left,1,correct,arm2,1,arm21,arc
191,16,baby,0.333531956887,right,1,correct,arm2,2,arm22,arc
192,16,arc,0.283598637907,right,1,correct,arm2,3,arm23,arc
193,17,arc,0.350243208231,space,1,correct,target,NaN,targetNaN,arc
194,17,trophy,0.400278857909,right,1,correct,path,1,path1,arc
195,17,astronaut,0.333651493303,left,1,correct,path,2,path2,arc
196,17,robot,0.300235631643,left,1,correct,path,3,path3,arc
197,17,watch,0.700056266738,left,1,correct,decision,1,decision1,arc
198,17,clover,0.58360515791,right,1,correct,arm1,1,arm11,arc
199,17,radio,0.250269409735,left,1,correct,arm1,2,arm12,arc
200,17,wing,0.250280276639,right,1,correct,arm1,3,arm13,arc
201,17,holly,0.383652429096,left,1,correct,decision,2,decision2,arc
202,17,match,0.483629548224,left,1,correct,arm2,1,arm21,arc
203,17,baby,0.28394909692,right,1,correct,arm2,2,arm22,arc
204,17,arc,0.23355936585,right,1,correct,arm2,3,arm23,arc
205,18,arc,0.150249426486,space,1,correct,target,NaN,targetNaN,arc
206,18,trophy,0.38382780971,right,1,correct,path,1,path1,arc
207,18,astronaut,0.283390354598,left,1,correct,path,2,path2,arc
208,18,robot,0.233545782045,left,1,correct,path,3,path3,arc
209,18,watch,0.266928439494,right,1,correct,decision,1,decision1,arc
210,18,clover,0.500255675055,right,1,correct,arm1,1,arm11,arc
211,18,radio,0.217217288911,left,1,correct,arm1,2,arm12,arc
212,18,wing,0.283631842351,right,1,correct,arm1,3,arm13,arc
213,18,holly,0.316948995925,left,1,correct,decision,2,decision2,arc
214,18,match,0.416929737432,left,1,correct,arm2,1,arm21,arc
215,18,baby,0.250305029098,right,1,correct,arm2,2,arm22,arc
216,18,arc,0.200301074889,right,1,correct,arm2,3,arm23,arc
217,19,arc,0.451161525678,space,1,correct,target,NaN,targetNaN,arc
218,19,trophy,0.416977732908,right,1,correct,path,1,path1,arc
219,19,astronaut,0.217350106919,left,1,correct,path,2,path2,arc
220,19,robot,0.216915429104,left,1,correct,path,3,path3,arc
221,19,watch,0.283791525988,left,1,correct,decision,1,decision1,arc
222,19,clover,0.70025066426,right,1,correct,arm1,1,arm11,arc
223,19,radio,0.200278737117,left,1,correct,arm1,2,arm12,arc
224,19,wing,0.25032102759,right,1,correct,arm1,3,arm13,arc
225,19,holly,0.38382388535,right,1,correct,decision,2,decision2,arc
226,19,match,0.466934295371,left,1,correct,arm2,1,arm21,arc
227,19,baby,0.283550943946,right,1,correct,arm2,2,arm22,arc
228,19,arc,0.233741990989,right,1,correct,arm2,3,arm23,arc
229,20,beaver,0.550209218869,space,1,correct,target,NaN,targetNaN,beaver
230,20,trophy,0.750239525689,right,1,correct,path,1,path1,beaver
231,20,astronaut,0.216923579341,left,1,correct,path,2,path2,beaver
232,20,robot,0.283685271395,left,1,correct,path,3,path3,beaver
233,20,pigeon,0.267356174532,left,1,correct,decision,1,decision1,beaver
234,20,bus,0.916904682992,left,1,correct,arm1,1,arm11,beaver
235,20,deer,0.266923307674,right,1,correct,arm1,2,arm12,beaver
236,20,fist,0.217033154331,right,1,correct,arm1,3,arm13,beaver
237,20,stepladder,0.616954308702,right,1,correct,decision,2,decision2,beaver
238,20,calc,0.40027976362,left,1,correct,arm2,1,arm21,beaver
239,20,tongue,0.650446541142,left,1,correct,arm2,2,arm22,beaver
240,20,beaver,0.250216282438,right,1,correct,arm2,3,arm23,beaver
241,21,arc,0.666896381881,space,1,correct,target,NaN,targetNaN,arc
242,21,trophy,0.633634468541,right,1,correct,path,1,path1,arc
243,21,astronaut,0.250240431167,left,1,correct,path,2,path2,arc
244,21,robot,0.266917270608,left,1,correct,path,3,path3,arc
245,21,watch,0.600382818375,left,1,correct,decision,1,decision1,arc
246,21,clover,0.566963032587,right,1,correct,arm1,1,arm11,arc
247,21,radio,0.250249486882,left,1,correct,arm1,2,arm12,arc
248,21,wing,0.217020778218,right,1,correct,arm1,3,arm13,arc
249,21,holly,0.383723366307,left,1,correct,decision,2,decision2,arc
250,21,match,0.433658496477,left,1,correct,arm2,1,arm21,arc
251,21,baby,0.250296878861,right,1,correct,arm2,2,arm22,arc
252,21,arc,0.217025608057,right,1,correct,arm2,3,arm23,arc
253,22,arc,0.200838686666,space,1,correct,target,NaN,targetNaN,arc
254,22,trophy,0.650371679803,right,1,correct,path,1,path1,arc
255,22,astronaut,0.233661998063,left,1,correct,path,2,path2,arc
256,22,robot,0.283588978462,left,1,correct,path,3,path3,arc
257,22,watch,0.450406876625,left,1,correct,decision,1,decision1,arc
258,22,clover,0.53362052259,right,1,correct,arm1,1,arm11,arc
259,22,radio,0.233584118308,left,1,correct,arm1,2,arm12,arc
260,22,wing,0.483586985851,right,1,correct,arm1,3,arm13,arc
261,22,holly,0.466957538622,left,1,correct,decision,2,decision2,arc
262,22,match,0.383606848307,left,1,correct,arm2,1,arm21,arc
263,22,baby,0.266954097431,right,1,correct,arm2,2,arm22,arc
264,22,arc,0.2335361226,right,1,correct,arm2,3,arm23,arc
265,23,arc,0.100263281958,space,1,correct,target,NaN,targetNaN,arc
266,23,trophy,0.400246558944,right,1,correct,path,1,path1,arc
267,23,astronaut,0.233623662032,left,1,correct,path,2,path2,arc
268,23,robot,0.300241668709,left,1,correct,path,3,path3,arc
269,23,watch,0.350329841953,right,1,correct,decision,1,decision1,arc
270,23,clover,0.683559033787,right,1,correct,arm1,1,arm11,arc
271,23,radio,0.316903415136,left,1,correct,arm1,2,arm12,arc
272,23,wing,0.216897317674,right,1,correct,arm1,3,arm13,arc
273,23,holly,0.45035254187,right,1,correct,decision,2,decision2,arc
274,23,match,0.433571862755,left,1,correct,arm2,1,arm21,arc
275,23,baby,0.516891461564,right,1,correct,arm2,2,arm22,arc
276,23,arc,0.266954097431,right,1,correct,arm2,3,arm23,arc
277,24,arc,0.466931880452,space,1,correct,target,NaN,targetNaN,arc
278,24,trophy,0.316913980292,right,1,correct,path,1,path1,arc
279,24,astronaut,0.267010243377,left,1,correct,path,2,path2,arc
280,24,robot,0.283583846642,left,1,correct,path,3,path3,arc
281,24,watch,0.366859373869,right,1,correct,decision,1,decision1,arc
282,24,clover,0.43360597291,right,1,correct,arm1,1,arm11,arc
283,24,radio,0.266909723869,left,1,correct,arm1,2,arm12,arc
284,24,wing,0.300255252514,right,1,correct,arm1,3,arm13,arc
285,24,holly,0.30043848115,left,1,correct,decision,2,decision2,arc
286,24,match,0.400248671882,left,1,correct,arm2,1,arm21,arc
287,24,baby,0.216948331799,right,1,correct,arm2,2,arm22,arc
288,24,arc,0.250272428384,right,1,correct,arm2,3,arm23,arc
289,25,beaver,0.150522609707,space,1,correct,target,NaN,targetNaN,beaver
290,25,trophy,0.350283053936,right,1,correct,path,1,path1,beaver
291,25,astronaut,0.28392464621,left,1,correct,path,2,path2,beaver
292,25,robot,0.300232612994,left,1,correct,path,3,path3,beaver
293,25,pigeon,0.383618318941,left,1,correct,decision,1,decision1,beaver
294,25,bus,0.700234363787,left,1,correct,arm1,1,arm11,beaver
295,25,deer,0.3502486418,right,1,correct,arm1,2,arm12,beaver
296,25,fist,0.28356784815,right,1,correct,arm1,3,arm13,beaver
297,25,stepladder,0.300308077829,left,1,correct,decision,2,decision2,beaver
298,25,calc,0.433566429419,left,1,correct,arm2,1,arm21,beaver
299,25,tongue,0.233925823355,left,1,correct,arm2,2,arm22,beaver
300,25,beaver,0.216961915605,right,1,correct,arm2,3,arm23,beaver
301,26,arc,0.233601626242,space,1,correct,target,NaN,targetNaN,arc
302,26,trophy,0.267053710995,right,1,correct,path,1,path1,arc
303,26,astronaut,0.28358595958,left,1,correct,path,2,path2,arc
304,26,robot,0.300248913467,left,1,correct,path,3,path3,arc
305,26,watch,0.616924424656,left,1,correct,decision,1,decision1,arc
306,26,clover,0.650279008783,right,1,correct,arm1,1,arm11,arc
307,26,radio,0.234038718976,left,1,correct,arm1,2,arm12,arc
308,26,wing,0.283531926805,right,1,correct,arm1,3,arm13,arc
309,26,holly,0.233619737672,right,1,correct,decision,2,decision2,arc
310,26,match,0.350265545771,left,1,correct,arm2,1,arm21,arc
311,26,baby,0.416946037905,right,1,correct,arm2,2,arm22,arc
312,26,arc,0.250273635844,right,1,correct,arm2,3,arm23,arc
313,27,beaver,0.300261591561,space,1,correct,target,NaN,targetNaN,beaver
314,27,trophy,0.316981898621,right,1,correct,path,1,path1,beaver
315,27,astronaut,0.266906705452,left,1,correct,path,2,path2,beaver
316,27,robot,0.266923911404,left,1,correct,path,3,path3,beaver
317,27,pigeon,0.267067596782,left,1,correct,decision,1,decision1,beaver
318,27,bus,0.900274330052,left,1,correct,arm1,1,arm11,beaver
319,27,deer,0.43340493436,right,1,correct,arm1,2,arm12,beaver
320,27,fist,0.300241064979,right,1,correct,arm1,3,arm13,beaver
321,27,stepladder,0.667020144407,left,1,correct,decision,2,decision2,beaver
322,27,calc,0.450295792427,left,1,correct,arm2,1,arm21,beaver
323,27,tongue,0.283688592026,left,1,correct,arm2,2,arm22,beaver
324,27,beaver,0.200254286407,right,1,correct,arm2,3,arm23,beaver
325,28,beaver,0.0836121006869,space,1,correct,target,NaN,targetNaN,beaver
326,28,trophy,0.366861184826,right,1,correct,path,1,path1,beaver
327,28,astronaut,0.250281484099,left,1,correct,path,2,path2,beaver
328,28,robot,0.300216614502,left,1,correct,path,3,path3,beaver
329,28,pigeon,0.450347108301,right,1,correct,decision,1,decision1,beaver
330,28,bus,1.05022763251,left,1,correct,arm1,1,arm11,beaver
331,28,deer,0.316927865846,right,1,correct,arm1,2,arm12,beaver
332,28,fist,0.283599543152,right,1,correct,arm1,3,arm13,beaver
333,28,stepladder,0.733565100934,left,1,correct,decision,2,decision2,beaver
334,28,calc,0.850077789277,left,1,correct,arm2,1,arm21,beaver
335,28,tongue,0.233564799419,left,1,correct,arm2,2,arm22,beaver
336,28,beaver,0.183573824819,right,1,correct,arm2,3,arm23,beaver
337,29,arc,0.483762970194,space,1,correct,target,NaN,targetNaN,arc
338,29,trophy,0.233754669083,right,1,correct,path,1,path1,arc
339,29,astronaut,0.31691730069,left,1,correct,path,2,path2,arc
340,29,robot,0.300285438541,left,1,correct,path,3,path3,arc
341,29,watch,0.300526322331,right,1,correct,decision,1,decision1,arc
342,29,clover,0.700279944809,right,1,correct,arm1,1,arm11,arc
343,29,radio,0.250242242357,left,1,correct,arm1,2,arm12,arc
344,29,wing,0.283576300135,right,1,correct,arm1,3,arm13,arc
345,29,holly,0.283548227046,left,1,correct,decision,2,decision2,arc
346,29,match,0.450250211405,left,1,correct,arm2,1,arm21,arc
347,29,baby,0.466949086636,right,1,correct,arm2,2,arm22,arc
348,29,arc,0.250240431167,right,1,correct,arm2,3,arm23,arc
349,30,beaver,0.4502568522,space,1,correct,target,NaN,targetNaN,beaver
350,30,trophy,0.483599362429,right,1,correct,path,1,path1,beaver
351,30,astronaut,0.283581431722,left,1,correct,path,2,path2,beaver
352,30,robot,0.300273665925,left,1,correct,path,3,path3,beaver
353,30,pigeon,0.300212690374,right,1,correct,decision,1,decision1,beaver
354,30,bus,0.900255916407,left,1,correct,arm1,1,arm11,beaver
355,30,deer,0.283581129741,right,1,correct,arm1,2,arm12,beaver
356,30,fist,0.300273967907,right,1,correct,arm1,3,arm13,beaver
357,30,stepladder,0.316928167595,right,1,correct,decision,2,decision2,beaver
358,30,calc,0.516726344358,left,1,correct,arm2,1,arm21,beaver
359,30,tongue,0.333581763785,left,1,correct,arm2,2,arm22,beaver
360,30,beaver,0.216918145772,right,1,correct,arm2,3,arm23,beaver
361,31,beaver,0.433697134722,space,1,correct,target,NaN,targetNaN,beaver
362,31,trophy,0.216901543783,right,1,correct,path,1,path1,beaver
363,31,astronaut,0.300256761722,left,1,correct,path,2,path2,beaver
364,31,robot,0.233558460372,left,1,correct,path,3,path3,beaver
365,31,pigeon,0.633611225523,right,1,correct,decision,1,decision1,beaver
366,31,bus,0.46692161751,left,1,correct,arm1,1,arm11,beaver
367,31,deer,0.383584510768,right,1,correct,arm1,2,arm12,beaver
368,31,fist,0.316919715609,right,1,correct,arm1,3,arm13,beaver
369,31,stepladder,0.250495804241,right,1,correct,decision,2,decision2,beaver
370,31,calc,0.400260444498,left,1,correct,arm2,1,arm21,beaver
371,31,tongue,0.216909391806,left,1,correct,arm2,2,arm22,beaver
372,31,beaver,0.233606154099,right,1,correct,arm2,3,arm23,beaver
373,32,beaver,0.116919896565,space,1,correct,target,NaN,targetNaN,beaver
374,32,trophy,0.366958685685,right,1,correct,path,1,path1,beaver
375,32,astronaut,0.216924183071,left,1,correct,path,2,path2,beaver
376,32,robot,0.233565402916,left,1,correct,path,3,path3,beaver
377,32,pigeon,0.466965084895,right,1,correct,decision,1,decision1,beaver
378,32,bus,0.550662913825,left,1,correct,arm1,1,arm11,beaver
379,32,deer,0.233606455848,right,1,correct,arm1,2,arm12,beaver
380,32,fist,0.250241638627,right,1,correct,arm1,3,arm13,beaver
381,32,stepladder,0.600307353539,left,1,correct,decision,2,decision2,beaver
382,32,calc,0.416894721566,left,1,correct,arm2,1,arm21,beaver
383,32,tongue,0.216953765368,left,1,correct,arm2,2,arm22,beaver
384,32,beaver,0.200244928943,right,1,correct,arm2,3,arm23,beaver
385,33,beaver,0.400483216858,space,1,correct,target,NaN,targetNaN,beaver
386,33,trophy,0.300294494256,right,1,correct,path,1,path1,beaver
387,33,astronaut,0.233571741963,left,1,correct,path,2,path2,beaver
388,33,robot,0.266708383569,left,1,correct,path,3,path3,beaver
389,33,pigeon,0.533687837422,left,1,correct,decision,1,decision1,beaver
390,33,bus,0.433611104731,left,1,correct,arm1,1,arm11,beaver
391,33,deer,0.200261833146,right,1,correct,arm1,2,arm12,beaver
392,33,fist,0.267332327552,right,1,correct,arm1,3,arm13,beaver
393,33,stepladder,0.866996417986,right,1,correct,decision,2,decision2,beaver
394,33,calc,0.383596886881,left,1,correct,arm2,1,arm21,beaver
395,33,tongue,0.233845528681,left,1,correct,arm2,2,arm22,beaver
396,33,beaver,0.200388614088,right,1,correct,arm2,3,arm23,beaver
397,34,beaver,0.350301467115,space,1,correct,target,NaN,targetNaN,beaver
398,34,trophy,0.216907580616,right,1,correct,path,1,path1,beaver
399,34,astronaut,0.233631208306,left,1,correct,path,2,path2,beaver
400,34,robot,0.250491578365,left,1,correct,path,3,path3,beaver
401,34,pigeon,0.233706069645,left,1,correct,decision,1,decision1,beaver
402,34,bus,0.433538658312,left,1,correct,arm1,1,arm11,beaver
403,34,deer,0.183989485493,right,1,correct,arm1,2,arm12,beaver
404,34,fist,0.233594381483,right,1,correct,arm1,3,arm13,beaver
405,34,stepladder,0.233579590451,right,1,correct,decision,2,decision2,beaver
406,34,calc,0.416957206558,left,1,correct,arm2,1,arm21,beaver
407,34,tongue,0.200313451001,left,1,correct,arm2,2,arm22,beaver
408,34,beaver,0.200326732825,right,1,correct,arm2,3,arm23,beaver
409,35,beaver,0.150296516716,space,1,correct,target,NaN,targetNaN,beaver
410,35,trophy,0.20058361534,right,1,correct,path,1,path1,beaver
411,35,astronaut,0.200255795848,left,1,correct,path,2,path2,beaver
412,35,robot,0.283580224263,left,1,correct,path,3,path3,beaver
413,35,pigeon,0.350397760514,right,1,correct,decision,1,decision1,beaver
414,35,bus,0.350414664717,left,1,correct,arm1,1,arm11,beaver
415,35,deer,0.183676155517,right,1,correct,arm1,2,arm12,beaver
416,35,fist,0.250309556955,right,1,correct,arm1,3,arm13,beaver
417,35,stepladder,0.233681920683,right,1,correct,decision,2,decision2,beaver
418,35,calc,0.333737523295,left,1,correct,arm2,1,arm21,beaver
419,35,tongue,0.216958293226,left,1,correct,arm2,2,arm22,beaver
420,35,beaver,0.200249758549,right,1,correct,arm2,3,arm23,beaver
421,36,arc,0.133639298147,space,1,correct,target,NaN,targetNaN,arc
422,36,trophy,0.966891733231,right,1,correct,path,1,path1,arc
423,36,astronaut,0.200238891877,left,1,correct,path,2,path2,arc
424,36,robot,0.283544303151,left,1,correct,path,3,path3,arc
425,36,watch,0.450287943939,right,1,correct,decision,1,decision1,arc
426,36,clover,0.66700505116,right,1,correct,arm1,1,arm11,arc
427,36,radio,0.35026856442,left,1,correct,arm1,2,arm12,arc
428,36,wing,0.200329147745,right,1,correct,arm1,3,arm13,arc
429,36,holly,0.300501570106,right,1,correct,decision,2,decision2,arc
430,36,match,0.317049515201,left,1,correct,arm2,1,arm21,arc
431,36,baby,0.483596645528,right,1,correct,arm2,2,arm22,arc
432,36,arc,0.183564165374,right,1,correct,arm2,3,arm23,arc
433,37,beaver,0.433652157662,space,1,correct,target,NaN,targetNaN,beaver
434,37,trophy,1.00024722307,right,1,correct,path,1,path1,beaver
435,37,astronaut,0.266919685528,left,1,correct,path,2,path2,beaver
436,37,robot,0.300284231082,left,1,correct,path,3,path3,beaver
437,37,pigeon,0.417002183618,left,1,correct,decision,1,decision1,beaver
438,37,bus,1.00025476958,left,1,correct,arm1,1,arm11,beaver
439,37,deer,0.21692720172,right,1,correct,arm1,2,arm12,beaver
440,37,fist,0.33357572672,right,1,correct,arm1,3,arm13,beaver
441,37,stepladder,0.25027786172,left,1,correct,decision,2,decision2,beaver
442,37,calc,0.566932846326,left,1,correct,arm2,1,arm21,beaver
443,37,tongue,0.200297150528,left,1,correct,arm2,2,arm22,beaver
444,37,beaver,0.266942626564,right,1,correct,arm2,3,arm23,beaver
445,38,beaver,0.466926145367,space,1,correct,target,NaN,targetNaN,beaver
446,38,trophy,0.166947094258,right,1,correct,path,1,path1,beaver
447,38,astronaut,0.283841936616,left,1,correct,path,2,path2,beaver
448,38,robot,0.283570866566,left,1,correct,path,3,path3,beaver
449,38,pigeon,0.233613398625,left,1,correct,decision,1,decision1,beaver
450,38,bus,0.583556860453,left,1,correct,arm1,1,arm11,beaver
451,38,deer,0.183567787521,right,1,correct,arm1,2,arm12,beaver
452,38,fist,0.26692994847,right,1,correct,arm1,3,arm13,beaver
453,38,stepladder,0.233599815052,left,1,correct,decision,2,decision2,beaver
454,38,calc,0.383611376164,left,1,correct,arm2,1,arm21,beaver
455,38,tongue,0.200252777198,left,1,correct,arm2,2,arm22,beaver
456,38,beaver,0.683562052203,right,1,correct,arm2,3,arm23,beaver
457,39,arc,0.617411626037,space,1,correct,target,NaN,targetNaN,arc
458,39,trophy,0.833579348866,right,1,correct,path,1,path1,arc
459,39,astronaut,0.250231073471,left,1,correct,path,2,path2,arc
460,39,robot,0.266917572357,left,1,correct,path,3,path3,arc
461,39,watch,0.533600901719,left,1,correct,decision,1,decision1,arc
462,39,clover,1.41690921085,right,1,correct,arm1,1,arm11,arc
463,39,radio,0.25023650704,left,1,correct,arm1,2,arm12,arc
464,39,wing,0.333569387672,right,1,correct,arm1,3,arm13,arc
465,39,holly,0.433378370944,left,1,correct,decision,2,decision2,arc
466,39,match,0.383587831398,left,1,correct,arm2,1,arm21,arc
467,39,baby,0.350053640548,right,1,correct,arm2,2,arm22,arc
468,39,arc,0.200233156327,right,1,correct,arm2,3,arm23,arc
469,40,arc,0.550410861149,space,1,correct,target,NaN,targetNaN,arc
470,40,trophy,0.233579892199,right,1,correct,path,1,path1,arc
471,40,astronaut,0.266893725609,left,1,correct,path,2,path2,arc
472,40,robot,0.300294192275,left,1,correct,path,3,path3,arc
473,40,watch,0.383656353457,left,1,correct,decision,1,decision1,arc
474,40,clover,0.916890797438,right,1,correct,arm1,1,arm11,arc
475,40,radio,0.333594743861,left,1,correct,arm1,2,arm12,arc
476,40,wing,0.30026762886,right,1,correct,arm1,3,arm13,arc
477,40,holly,0.267013261793,right,1,correct,decision,2,decision2,arc
478,40,match,0.933600237593,left,1,correct,arm2,1,arm21,arc
479,40,baby,0.53360180743,right,1,correct,arm2,2,arm22,arc
480,40,arc,0.316898283549,right,1,correct,arm2,3,arm23,arc
481,41,arc,0.483599664178,space,1,correct,target,NaN,targetNaN,arc
482,41,trophy,0.516986547504,right,1,correct,path,1,path1,arc
483,41,astronaut,0.316938129021,left,1,correct,path,2,path2,arc
484,41,robot,0.250250392593,left,1,correct,path,3,path3,arc
485,41,watch,0.466935503064,right,1,correct,decision,1,decision1,arc
486,41,clover,0.666944075609,right,1,correct,arm1,1,arm11,arc
487,41,radio,0.266902479343,left,1,correct,arm1,2,arm12,arc
488,41,wing,0.250269711483,right,1,correct,arm1,3,arm13,arc
489,41,holly,0.433662722586,left,1,correct,decision,2,decision2,arc
490,41,match,0.400253501721,left,1,correct,arm2,1,arm21,arc
491,41,baby,0.433591483627,right,1,correct,arm2,2,arm22,arc
492,41,arc,0.266949871322,right,1,correct,arm2,3,arm23,arc
493,42,arc,0.516931005288,space,1,correct,target,NaN,targetNaN,arc
494,42,trophy,0.333569085691,right,1,correct,path,1,path1,arc
495,42,astronaut,0.283694327343,left,1,correct,path,2,path2,arc
496,42,robot,0.300058440072,left,1,correct,path,3,path3,arc
497,42,watch,0.400299384259,left,1,correct,decision,1,decision1,arc
498,42,clover,0.866910086479,right,1,correct,arm1,1,arm11,arc
499,42,radio,0.300257063704,left,1,correct,arm1,2,arm12,arc
500,42,wing,0.200266059022,right,1,correct,arm1,3,arm13,arc
501,42,holly,0.283739606384,left,1,correct,decision,2,decision2,arc
502,42,match,0.383621639572,left,1,correct,arm2,1,arm21,arc
503,42,baby,0.467018514173,right,1,correct,arm2,2,arm22,arc
504,42,arc,0.266950173303,right,1,correct,arm2,3,arm23,arc
505,43,beaver,0.466782761971,space,1,correct,target,NaN,targetNaN,beaver
506,43,trophy,0.283657198539,right,1,correct,path,1,path1,beaver
507,43,astronaut,0.2836085991,left,1,correct,path,2,path2,beaver
508,43,robot,0.266887688311,left,1,correct,path,3,path3,beaver
509,43,pigeon,0.433661213377,left,1,correct,decision,1,decision1,beaver
510,43,bus,0.700289302273,left,1,correct,arm1,1,arm11,beaver
511,43,deer,0.20025368291,right,1,correct,arm1,2,arm12,beaver
512,43,fist,0.23367467639,right,1,correct,arm1,3,arm13,beaver
513,43,stepladder,0.383610470686,left,1,correct,decision,2,decision2,beaver
514,43,calc,0.416927624261,left,1,correct,arm2,1,arm21,beaver
515,43,tongue,0.250277559971,left,1,correct,arm2,2,arm22,beaver
516,43,beaver,0.183761581546,right,1,correct,arm2,3,arm23,beaver
517,44,beaver,0.317314547952,space,1,correct,target,NaN,targetNaN,beaver
518,44,trophy,0.300271251006,right,1,correct,path,1,path1,beaver
519,44,astronaut,0.266926628072,left,1,correct,path,2,path2,beaver
520,44,robot,0.250257637352,left,1,correct,path,3,path3,beaver
521,44,pigeon,0.483714672504,right,1,correct,decision,1,decision1,beaver
522,44,bus,0.566931638867,left,1,correct,arm1,1,arm11,beaver
523,44,deer,0.183606727514,right,1,correct,arm1,2,arm12,beaver
524,44,fist,0.267061257735,right,1,correct,arm1,3,arm13,beaver
525,44,stepladder,0.783877254231,left,1,correct,decision,2,decision2,beaver
526,44,calc,0.450282208622,left,1,correct,arm2,1,arm21,beaver
527,44,tongue,0.46696236846,left,1,correct,arm2,2,arm22,beaver
528,44,beaver,0.250246468466,right,1,correct,arm2,3,arm23,beaver
529,45,beaver,0.433799766703,space,-1,miss,target,NaN,targetNaN,beaver
530,45,trophy,0.283606787911,right,-1,miss,path,1,path1,beaver
531,45,astronaut,0.300221142359,left,-1,miss,path,2,path2,beaver
532,45,robot,0.283843445824,left,-1,miss,path,3,path3,beaver
533,45,pigeon,0.817100227578,right,-1,miss,decision,1,decision1,beaver
534,45,bus,0.433790409239,left,-1,miss,arm1,1,arm11,beaver
535,45,deer,0.250058711739,right,-1,miss,arm1,2,arm12,beaver
536,45,fist,0.533723758534,right,-1,miss,arm1,3,arm13,beaver
537,45,holly,0.366955365287,left,-1,miss,decision,2,decision2,beaver
538,45,match,1.26671532635,left,-1,miss,arm2,1,arm21,beaver
539,45,baby,0.217037682422,right,-1,miss,arm2,2,arm22,beaver
540,45,arc,0.483566459501,right,-1,miss,arm2,3,arm23,beaver
541,46,beaver,0.600278978702,space,1,correct,target,NaN,targetNaN,beaver
542,46,trophy,0.30024136696,right,1,correct,path,1,path1,beaver
543,46,astronaut,0.266908214893,left,1,correct,path,2,path2,beaver
544,46,robot,0.333614364499,left,1,correct,path,3,path3,beaver
545,46,pigeon,0.433624990284,left,1,correct,decision,1,decision1,beaver
546,46,bus,0.433621971635,left,1,correct,arm1,1,arm11,beaver
547,46,deer,0.300259176875,right,1,correct,arm1,2,arm12,beaver
548,46,fist,0.21694712434,right,1,correct,arm1,3,arm13,beaver
549,46,stepladder,0.450281001162,left,1,correct,decision,2,decision2,beaver
550,46,calc,0.366921255132,left,1,correct,arm2,1,arm21,beaver
551,46,tongue,0.20027511497,left,1,correct,arm2,2,arm22,beaver
552,46,beaver,0.21692599426,right,1,correct,arm2,3,arm23,beaver
553,47,arc,0.11693649902,space,1,correct,target,NaN,targetNaN,arc
554,47,trophy,0.366907671327,right,1,correct,path,1,path1,arc
555,47,astronaut,0.316931186477,left,1,correct,path,2,path2,arc
556,47,robot,0.300249819178,left,1,correct,path,3,path3,arc
557,47,watch,0.317022649571,right,1,correct,decision,1,decision1,arc
558,47,clover,0.61691325577,right,1,correct,arm1,1,arm11,arc
559,47,radio,0.233569629025,left,1,correct,arm1,2,arm12,arc
560,47,wing,0.200216855854,right,1,correct,arm1,3,arm13,arc
561,47,holly,0.650551890023,right,1,correct,decision,2,decision2,arc
562,47,match,0.417345398106,left,1,correct,arm2,1,arm21,arc
563,47,baby,0.483548347838,right,1,correct,arm2,2,arm22,arc
564,47,arc,0.416900155134,right,1,correct,arm2,3,arm23,arc
565,48,arc,0.266943230527,space,1,correct,target,NaN,targetNaN,arc
566,48,trophy,0.250242544105,right,1,correct,path,1,path1,arc
567,48,astronaut,0.266935382038,left,1,correct,path,2,path2,arc
568,48,robot,0.23357868474,left,1,correct,path,3,path3,arc
569,48,watch,0.23358200537,right,1,correct,decision,1,decision1,arc
570,48,clover,0.46696297219,right,1,correct,arm1,1,arm11,arc
571,48,radio,0.250264580129,left,1,correct,arm1,2,arm12,arc
572,48,wing,0.216900034342,right,1,correct,arm1,3,arm13,arc
573,48,holly,0.333458906971,left,1,correct,decision,2,decision2,arc
574,48,match,0.400281876558,left,1,correct,arm2,1,arm21,arc
575,48,baby,0.283573885215,right,1,correct,arm2,2,arm22,arc
576,48,arc,0.250608700095,right,1,correct,arm2,3,arm23,arc
577,49,arc,0.100269621238,space,1,correct,target,NaN,targetNaN,arc
578,49,trophy,0.233573553152,right,1,correct,path,1,path1,arc
579,49,astronaut,0.283560301643,left,1,correct,path,2,path2,arc
580,49,robot,0.267245693831,left,1,correct,path,3,path3,arc
581,49,watch,0.450268323068,right,1,correct,decision,1,decision1,arc
582,49,clover,0.500277408864,right,1,correct,arm1,1,arm11,arc
583,49,radio,0.250249486882,left,1,correct,arm1,2,arm12,arc
584,49,wing,0.233585023787,right,1,correct,arm1,3,arm13,arc
585,49,holly,0.250278163701,left,1,correct,decision,2,decision2,arc
586,49,match,0.383645184571,left,1,correct,arm2,1,arm21,arc
587,49,baby,0.233576270053,right,1,correct,arm2,2,arm22,arc
588,49,arc,0.266921798466,right,1,correct,arm2,3,arm23,arc
589,50,beaver,0.366751610069,space,1,correct,target,NaN,targetNaN,beaver
590,50,trophy,0.16694377386,right,1,correct,path,1,path1,beaver
591,50,astronaut,0.266995452344,left,1,correct,path,2,path2,beaver
592,50,robot,1.26713883551,left,1,correct,path,3,path3,beaver
593,50,pigeon,0.383664805209,left,1,correct,decision,1,decision1,beaver
594,50,bus,1.15023825783,left,1,correct,arm1,1,arm11,beaver
595,50,deer,0.283737191232,right,1,correct,arm1,2,arm12,beaver
596,50,fist,0.283582639415,right,1,correct,arm1,3,arm13,beaver
597,50,stepladder,0.266973416554,left,1,correct,decision,2,decision2,beaver
598,50,calc,0.383657862665,left,1,correct,arm2,1,arm21,beaver
599,50,tongue,0.533615692751,left,1,correct,arm2,2,arm22,beaver
600,50,beaver,0.216998742428,right,1,correct,arm2,3,arm23,beaver
