pic_index,trial_num,pic_name,rt,resp,feedback_code,feedback,segment,segment_index,pic_type,trial_target
1,1,bolt,0.0669627306052,space,0,wrong,target,NaN,targetNaN,bolt
2,1,coffeepot,5.91685397062,right,0,wrong,path,1,path1,bolt
3,1,mosquito,1.05006734491,right,0,wrong,path,2,path2,bolt
4,1,canoe,0.600258150371,left,0,wrong,path,3,path3,bolt
5,1,goose,3.56690658466,right,0,wrong,decision,1,decision1,bolt
6,1,sailor,1.11690118141,right,0,wrong,arm1,1,arm11,bolt
7,1,cooker,0.583573764423,left,0,wrong,arm1,2,arm12,bolt
8,1,tooth,0.783579620766,right,0,wrong,arm1,3,arm13,bolt
9,1,garlic,3.53359637386,right,0,wrong,decision,2,decision2,bolt
10,1,mug,3.33355037053,left,0,wrong,arm2,1,arm21,bolt
11,1,branch,1.43356159958,left,0,wrong,arm2,2,arm22,bolt
12,1,bolt,2.36688412633,left,0,wrong,arm2,3,arm23,bolt
13,2,bolt,3.43354982696,space,-1,miss,target,NaN,targetNaN,bolt
14,2,coffeepot,0.816921526799,right,-1,miss,path,1,path1,bolt
15,2,mosquito,0.400327155367,right,-1,miss,path,2,path2,bolt
16,2,canoe,0.333525014343,left,-1,miss,path,3,path3,bolt
17,2,goose,2.38362405426,left,-1,miss,decision,1,decision1,bolt
18,2,sailor,0.866934838705,right,-1,miss,arm1,1,arm11,bolt
19,2,cooker,1.50024661934,left,-1,miss,arm1,2,arm12,bolt
20,2,tooth,0.816930582747,right,-1,miss,arm1,3,arm13,bolt
21,2,crutches,2.55023548077,right,-1,miss,decision,2,decision2,bolt
22,2,stapler,1.43359661521,left,-1,miss,arm2,1,arm21,bolt
23,2,rose,1.36698434385,left,-1,miss,arm2,2,arm22,bolt
24,2,lion,0.766922100214,right,-1,miss,arm2,3,arm23,bolt
25,3,bolt,1.05060525867,space,1,correct,target,NaN,targetNaN,bolt
26,3,coffeepot,0.516951833386,right,1,correct,path,1,path1,bolt
27,3,mosquito,3.25024314784,right,1,correct,path,2,path2,bolt
28,3,canoe,0.333669906948,left,1,correct,path,3,path3,bolt
29,3,domino,1.65031251521,right,1,correct,decision,1,decision1,bolt
30,3,ambulance,4.55013465951,left,1,correct,arm1,1,arm11,bolt
31,3,trunk,0.750273333862,right,1,correct,arm1,2,arm12,bolt
32,3,peach,1.01688210387,right,1,correct,arm1,3,arm13,bolt
33,3,garlic,1.46705986909,left,1,correct,decision,2,decision2,bolt
34,3,mug,3.51688361308,left,1,correct,arm2,1,arm21,bolt
35,3,branch,2.00020254776,left,1,correct,arm2,2,arm22,bolt
36,3,bolt,1.28357026284,left,1,correct,arm2,3,arm23,bolt
37,4,lion,9.00021160371,space,1,correct,target,NaN,targetNaN,lion
38,4,coffeepot,2.63352368609,right,1,correct,path,1,path1,lion
39,4,mosquito,0.716917240294,right,1,correct,path,2,path2,lion
40,4,canoe,1.85027128132,left,1,correct,path,3,path3,lion
41,4,goose,1.60029497719,left,1,correct,decision,1,decision1,lion
42,4,sailor,1.46692584339,right,1,correct,arm1,1,arm11,lion
43,4,cooker,2.80025072466,left,1,correct,arm1,2,arm12,lion
44,4,tooth,0.666896381881,right,1,correct,arm1,3,arm13,lion
45,4,crutches,1.55023276387,left,1,correct,decision,2,decision2,lion
46,4,stapler,1.36693574442,left,1,correct,arm2,1,arm21,lion
47,4,rose,0.583618741482,left,1,correct,arm2,2,arm22,lion
48,4,lion,0.63358737831,right,1,correct,arm2,3,arm23,lion
49,5,lion,0.533638332505,space,1,correct,target,NaN,targetNaN,lion
50,5,coffeepot,4.38360081101,right,1,correct,path,1,path1,lion
51,5,mosquito,1.05030370085,right,1,correct,path,2,path2,lion
52,5,canoe,0.114095094148,left,1,correct,path,3,path3,lion
53,5,goose,3.9502157995,left,1,correct,decision,1,decision1,lion
54,5,sailor,0.916918870294,right,1,correct,arm1,1,arm11,lion
55,5,cooker,0.683600690449,left,1,correct,arm1,2,arm12,lion
56,5,tooth,1.05023065093,right,1,correct,arm1,3,arm13,lion
57,5,crutches,1.08360063005,left,1,correct,decision,2,decision2,lion
58,5,stapler,1.60022856807,left,1,correct,arm2,1,arm21,lion
59,5,rose,5.7336903729,left,1,correct,arm2,2,arm22,lion
60,5,lion,1.16694498109,right,1,correct,arm2,3,arm23,lion
61,6,lion,0.633640505606,space,1,correct,target,NaN,targetNaN,lion
62,6,coffeepot,0.81691790442,right,1,correct,path,1,path1,lion
63,6,mosquito,0.533809184795,right,1,correct,path,2,path2,lion
64,6,canoe,0.483572194818,left,1,correct,path,3,path3,lion
65,6,goose,1.56692831847,left,1,correct,decision,1,decision1,lion
66,6,sailor,1.2506228874,right,1,correct,arm1,1,arm11,lion
67,6,cooker,1.1835708064,left,1,correct,arm1,2,arm12,lion
68,6,tooth,2.48355347943,right,1,correct,arm1,3,arm13,lion
69,6,crutches,1.10025362251,left,1,correct,decision,2,decision2,lion
70,6,stapler,1.0669162441,left,1,correct,arm2,1,arm21,lion
71,6,rose,1.43353141355,left,1,correct,arm2,2,arm22,lion
72,6,lion,0.866928197676,right,1,correct,arm2,3,arm23,lion
73,7,lion,0.666951622115,space,1,correct,target,NaN,targetNaN,lion
74,7,coffeepot,0.80026823259,right,1,correct,path,1,path1,lion
75,7,mosquito,0.566961523145,right,1,correct,path,2,path2,lion
76,7,canoe,0.350056960946,left,1,correct,path,3,path3,lion
77,7,goose,1.41691253125,right,1,correct,decision,1,decision1,lion
78,7,sailor,1.41693668021,right,1,correct,arm1,1,arm11,lion
79,7,cooker,0.533588223625,left,1,correct,arm1,2,arm12,lion
80,7,tooth,1.18367524981,right,1,correct,arm1,3,arm13,lion
81,7,crutches,3.01680905395,right,1,correct,decision,2,decision2,lion
82,7,stapler,1.20031767711,left,1,correct,arm2,1,arm21,lion
83,7,rose,0.933575485134,left,1,correct,arm2,2,arm22,lion
84,7,lion,0.633581039496,right,1,correct,arm2,3,arm23,lion
85,8,bolt,0.666996599175,space,1,correct,target,NaN,targetNaN,bolt
86,8,coffeepot,0.583576481324,right,1,correct,path,1,path1,bolt
87,8,mosquito,1.63355749426,right,1,correct,path,2,path2,bolt
88,8,canoe,0.114226403181,left,1,correct,path,3,path3,bolt
89,8,domino,0.100379799725,left,1,correct,decision,1,decision1,bolt
90,8,ambulance,1.83358840481,left,1,correct,arm1,1,arm11,bolt
91,8,trunk,0.766886480851,right,1,correct,arm1,2,arm12,bolt
92,8,peach,0.700060492614,right,1,correct,arm1,3,arm13,bolt
93,8,garlic,2.68358921958,right,1,correct,decision,2,decision2,bolt
94,8,mug,1.06690447172,left,1,correct,arm2,1,arm21,bolt
95,8,branch,0.450252626324,left,1,correct,arm2,2,arm22,bolt
96,8,bolt,1.56695759878,left,1,correct,arm2,3,arm23,bolt
97,9,bolt,0.566921979422,space,1,correct,target,NaN,targetNaN,bolt
98,9,coffeepot,0.566717620473,right,1,correct,path,1,path1,bolt
99,9,mosquito,0.466907731723,right,1,correct,path,2,path2,bolt
100,9,canoe,0.433599935845,left,1,correct,path,3,path3,bolt
101,9,domino,3.96691980609,left,1,correct,decision,1,decision1,bolt
102,9,ambulance,1.3002468003,left,1,correct,arm1,1,arm11,bolt
103,9,trunk,0.566905678948,right,1,correct,arm1,2,arm12,bolt
104,9,peach,0.350250151008,right,1,correct,arm1,3,arm13,bolt
105,9,garlic,3.80025947862,right,1,correct,decision,2,decision2,bolt
106,9,mug,2.63357802061,left,1,correct,arm2,1,arm21,bolt
107,9,branch,0.350280639017,left,1,correct,arm2,2,arm22,bolt
108,9,bolt,0.317032309249,left,1,correct,arm2,3,arm23,bolt
109,10,bolt,0.666931397514,space,1,correct,target,NaN,targetNaN,bolt
110,10,coffeepot,0.566935865209,right,1,correct,path,1,path1,bolt
111,10,mosquito,0.400234786561,right,1,correct,path,2,path2,bolt
112,10,canoe,0.333590517519,left,1,correct,path,3,path3,bolt
113,10,domino,1.31698974711,left,1,correct,decision,1,decision1,bolt
114,10,ambulance,1.78361493815,left,1,correct,arm1,1,arm11,bolt
115,10,trunk,0.366915217834,right,1,correct,arm1,2,arm12,bolt
116,10,peach,0.333573009819,right,1,correct,arm1,3,arm13,bolt
117,10,garlic,1.00015575951,left,1,correct,decision,2,decision2,bolt
118,10,mug,2.05023759371,left,1,correct,arm2,1,arm21,bolt
119,10,branch,0.200230439659,left,1,correct,arm2,2,arm22,bolt
120,10,bolt,0.183652006555,left,1,correct,arm2,3,arm23,bolt
121,11,lion,0.51693945704,space,1,correct,target,NaN,targetNaN,lion
122,11,coffeepot,0.350305089727,right,1,correct,path,1,path1,lion
123,11,mosquito,0.366934235208,right,1,correct,path,2,path2,lion
124,11,canoe,0.300239253789,left,1,correct,path,3,path3,lion
125,11,goose,0.733638754813,left,1,correct,decision,1,decision1,lion
126,11,sailor,1.05028770235,right,1,correct,arm1,1,arm11,lion
127,11,cooker,0.483688109089,left,1,correct,arm1,2,arm12,lion
128,11,tooth,0.933575183386,right,1,correct,arm1,3,arm13,lion
129,11,crutches,1.41693698196,left,1,correct,decision,2,decision2,lion
130,11,stapler,0.733608569019,left,1,correct,arm2,1,arm21,lion
131,11,rose,0.816919715609,left,1,correct,arm2,2,arm22,lion
132,11,lion,0.416927020531,right,1,correct,arm2,3,arm23,lion
133,12,lion,0.500329026952,space,1,correct,target,NaN,targetNaN,lion
134,12,coffeepot,0.950256550452,right,1,correct,path,1,path1,lion
135,12,mosquito,0.58362508053,right,1,correct,path,2,path2,lion
136,12,canoe,0.767037410755,left,1,correct,path,3,path3,lion
137,12,goose,4.0835127891,right,1,correct,decision,1,decision1,lion
138,12,sailor,0.800257969182,right,1,correct,arm1,1,arm11,lion
139,12,cooker,0.500259599183,left,1,correct,arm1,2,arm12,lion
140,12,tooth,0.350248339819,right,1,correct,arm1,3,arm13,lion
141,12,crutches,0.866958383704,left,1,correct,decision,2,decision2,lion
142,12,stapler,2.5502300472,left,1,correct,arm2,1,arm21,lion
143,12,rose,0.433670872822,left,1,correct,arm2,2,arm22,lion
144,12,lion,0.366937857354,right,1,correct,arm2,3,arm23,lion
145,13,bolt,1.03360905196,space,-1,miss,target,NaN,targetNaN,bolt
146,13,coffeepot,1.41690770164,right,-1,miss,path,1,path1,bolt
147,13,mosquito,0.366902539972,right,-1,miss,path,2,path2,bolt
148,13,canoe,0.350080505945,left,-1,miss,path,3,path3,bolt
149,13,goose,1.30025253585,left,-1,miss,decision,1,decision1,bolt
150,13,sailor,1.4668878091,right,-1,miss,arm1,1,arm11,bolt
151,13,cooker,0.550235178787,left,-1,miss,arm1,2,arm12,bolt
152,13,tooth,0.416930944659,right,-1,miss,arm1,3,arm13,bolt
153,13,crutches,1.31694326061,left,-1,miss,decision,2,decision2,bolt
154,13,stapler,0.900051255943,left,-1,miss,arm2,1,arm21,bolt
155,13,rose,0.46693520085,left,-1,miss,arm2,2,arm22,bolt
156,13,lion,0.433589974418,right,-1,miss,arm2,3,arm23,bolt
157,14,bolt,3.73353853752,space,1,correct,target,NaN,targetNaN,bolt
158,14,coffeepot,0.866905558389,right,1,correct,path,1,path1,bolt
159,14,mosquito,1.6169307637,right,1,correct,path,2,path2,bolt
160,14,canoe,0.113947182894,left,1,correct,path,3,path3,bolt
161,14,domino,2.06702310243,right,1,correct,decision,1,decision1,bolt
162,14,ambulance,2.45023753354,left,1,correct,arm1,1,arm11,bolt
163,14,trunk,0.533596977592,right,1,correct,arm1,2,arm12,bolt
164,14,peach,0.516919232439,right,1,correct,arm1,3,arm13,bolt
165,14,garlic,2.30029570148,right,1,correct,decision,2,decision2,bolt
166,14,mug,3.60022585141,left,1,correct,arm2,1,arm21,bolt
167,14,branch,0.566944316961,left,1,correct,arm2,2,arm22,bolt
168,14,bolt,0.533555924427,left,1,correct,arm2,3,arm23,bolt
169,15,bolt,0.5836709633,space,1,correct,target,NaN,targetNaN,bolt
170,15,coffeepot,0.466910146642,right,1,correct,path,1,path1,bolt
171,15,mosquito,0.416879326804,right,1,correct,path,2,path2,bolt
172,15,canoe,0.116910539102,left,1,correct,path,3,path3,bolt
173,15,domino,1.30031803926,left,1,correct,decision,1,decision1,bolt
174,15,ambulance,1.6002681118,left,1,correct,arm1,1,arm11,bolt
175,15,trunk,0.566920470214,right,1,correct,arm1,2,arm12,bolt
176,15,peach,0.0502372919582,right,1,correct,arm1,3,arm13,bolt
177,15,garlic,0.966942747356,right,1,correct,decision,2,decision2,bolt
178,15,mug,2.63356715394,left,1,correct,arm2,1,arm21,bolt
179,15,branch,0.0502285379916,left,1,correct,arm2,2,arm22,bolt
180,15,bolt,0.000230620615184,left,1,correct,arm2,3,arm23,bolt
181,16,lion,0.583845438203,space,1,correct,target,NaN,targetNaN,lion
182,16,coffeepot,1.7170681702,right,1,correct,path,1,path1,lion
183,16,mosquito,0.150231315056,right,1,correct,path,2,path2,lion
184,16,canoe,0.116915670689,left,1,correct,path,3,path3,lion
185,16,goose,0.650309496792,left,1,correct,decision,1,decision1,lion
186,16,sailor,1.78356090514,right,1,correct,arm1,1,arm11,lion
187,16,cooker,0.383597490611,left,1,correct,arm1,2,arm12,lion
188,16,tooth,0.166895778151,right,1,correct,arm1,3,arm13,lion
189,16,crutches,0.800448140828,left,1,correct,decision,2,decision2,lion
190,16,stapler,3.28360135457,left,1,correct,arm2,1,arm21,lion
191,16,rose,0.383591151563,left,1,correct,arm2,2,arm22,lion
192,16,lion,0.0668830396608,right,1,correct,arm2,3,arm23,lion
193,17,bolt,0.733656262746,space,1,correct,target,NaN,targetNaN,bolt
194,17,coffeepot,0.400228749262,right,1,correct,path,1,path1,bolt
195,17,mosquito,0.366975287907,right,1,correct,path,2,path2,bolt
196,17,canoe,0.100070997374,left,1,correct,path,3,path3,bolt
197,17,domino,2.4835833637,left,1,correct,decision,1,decision1,bolt
198,17,ambulance,1.5835713495,left,1,correct,arm1,1,arm11,bolt
199,17,trunk,0.316928771557,right,1,correct,arm1,2,arm12,bolt
200,17,peach,0.0835354283918,right,1,correct,arm1,3,arm13,bolt
201,17,garlic,0.666955848224,right,1,correct,decision,2,decision2,bolt
202,17,mug,1.05023789546,left,1,correct,arm2,1,arm21,bolt
203,17,branch,0.0335725268815,left,1,correct,arm2,2,arm22,bolt
204,17,bolt,0.0335622637067,left,1,correct,arm2,3,arm23,bolt
205,18,bolt,0.466906826245,space,1,correct,target,NaN,targetNaN,bolt
206,18,coffeepot,0.500286162831,right,1,correct,path,1,path1,bolt
207,18,mosquito,0.266918779816,right,1,correct,path,2,path2,bolt
208,18,canoe,0.0669422040228,left,1,correct,path,3,path3,bolt
209,18,domino,1.51696119132,left,1,correct,decision,1,decision1,bolt
210,18,ambulance,1.00033415854,left,1,correct,arm1,1,arm11,bolt
211,18,trunk,0.183620613068,right,1,correct,arm1,2,arm12,bolt
212,18,peach,0.0669388838578,right,1,correct,arm1,3,arm13,bolt
213,18,garlic,0.817022046074,left,1,correct,decision,2,decision2,bolt
214,18,mug,4.51688331133,left,1,correct,arm2,1,arm21,bolt
215,18,branch,0.0168736516498,left,1,correct,arm2,2,arm22,bolt
216,18,bolt,0.0335809790995,left,1,correct,arm2,3,arm23,bolt
217,19,bolt,0.400278857909,space,1,correct,target,NaN,targetNaN,bolt
218,19,coffeepot,0.466871206649,right,1,correct,path,1,path1,bolt
219,19,mosquito,0.250248883385,right,1,correct,path,2,path2,bolt
220,19,canoe,0.0502421215642,left,1,correct,path,3,path3,bolt
221,19,domino,0.700291113462,left,1,correct,decision,1,decision1,bolt
222,19,ambulance,0.850285770372,left,1,correct,arm1,1,arm11,bolt
223,19,trunk,0.250143534271,right,1,correct,arm1,2,arm12,bolt
224,19,peach,0.0834035156295,right,1,correct,arm1,3,arm13,bolt
225,19,garlic,0.666966111399,left,1,correct,decision,2,decision2,bolt
226,19,mug,1.80026340275,left,1,correct,arm2,1,arm21,bolt
227,19,branch,0.0335915440228,left,1,correct,arm2,2,arm22,bolt
228,19,bolt,0.000231828074902,left,1,correct,arm2,3,arm23,bolt
229,20,bolt,4.51688029268,space,1,correct,target,NaN,targetNaN,bolt
230,20,coffeepot,0.68357714545,right,1,correct,path,1,path1,bolt
231,20,mosquito,0.0335302664898,right,1,correct,path,2,path2,bolt
232,20,canoe,0.0502807595767,left,1,correct,path,3,path3,bolt
233,20,domino,0.900260444498,right,1,correct,decision,1,decision1,bolt
234,20,ambulance,1.1003496137,left,1,correct,arm1,1,arm11,bolt
235,20,trunk,0.0502421215642,right,1,correct,arm1,2,arm12,bolt
236,20,peach,0.0335619617254,right,1,correct,arm1,3,arm13,bolt
237,20,garlic,4.18359465338,left,1,correct,decision,2,decision2,bolt
238,20,mug,0.783578413306,left,1,correct,arm2,1,arm21,bolt
239,20,branch,0.0169394572731,left,1,correct,arm2,2,arm22,bolt
240,20,bolt,0.016889952356,left,1,correct,arm2,3,arm23,bolt
241,21,lion,3.61697000545,space,1,correct,target,NaN,targetNaN,lion
242,21,coffeepot,4.83352893847,right,1,correct,path,1,path1,lion
243,21,mosquito,0.150240371004,right,1,correct,path,2,path2,lion
244,21,canoe,0.133570172358,left,1,correct,path,3,path3,lion
245,21,goose,1.38362677093,left,1,correct,decision,1,decision1,lion
246,21,sailor,0.783620975446,right,1,correct,arm1,1,arm11,lion
247,21,cooker,0.266913044499,left,1,correct,arm1,2,arm12,lion
248,21,tooth,0.0502756279893,right,1,correct,arm1,3,arm13,lion
249,21,crutches,0.733618228463,right,1,correct,decision,2,decision2,lion
250,21,stapler,0.750249185134,left,1,correct,arm2,1,arm21,lion
251,21,rose,0.0168821038678,left,1,correct,arm2,2,arm22,lion
252,21,lion,0.333587800851,right,1,correct,arm2,3,arm23,lion
253,22,bolt,0.450276775286,space,1,correct,target,NaN,targetNaN,bolt
254,22,coffeepot,0.316893453943,right,1,correct,path,1,path1,bolt
255,22,mosquito,0.166919625131,right,1,correct,path,2,path2,bolt
256,22,canoe,0.0668827379122,left,1,correct,path,3,path3,bolt
257,22,domino,0.633598245448,right,1,correct,decision,1,decision1,bolt
258,22,ambulance,1.11694978084,left,1,correct,arm1,1,arm11,bolt
259,22,trunk,0.2836786306,right,1,correct,arm1,2,arm12,bolt
260,22,peach,0.0504531215411,right,1,correct,arm1,3,arm13,bolt
261,22,garlic,2.05033871671,right,1,correct,decision,2,decision2,bolt
262,22,mug,0.750297180843,left,1,correct,arm2,1,arm21,bolt
263,22,branch,0.0335595468059,left,1,correct,arm2,2,arm22,bolt
264,22,bolt,0.0337014209945,left,1,correct,arm2,3,arm23,bolt
265,23,bolt,0.550245140214,space,1,correct,target,NaN,targetNaN,bolt
266,23,coffeepot,0.71693172981,right,1,correct,path,1,path1,bolt
267,23,mosquito,0.100267507834,right,1,correct,path,2,path2,bolt
268,23,canoe,0.0502976637799,left,1,correct,path,3,path3,bolt
269,23,domino,1.033630786,left,1,correct,decision,1,decision1,bolt
270,23,ambulance,1.51693100506,left,1,correct,arm1,1,arm11,bolt
271,23,trunk,0.166958564892,right,1,correct,arm1,2,arm12,bolt
272,23,peach,0.250243751565,right,1,correct,arm1,3,arm13,bolt
273,23,garlic,0.666976978304,left,1,correct,decision,2,decision2,bolt
274,23,mug,0.683646874968,left,1,correct,arm2,1,arm21,bolt
275,23,branch,0.0336467842571,left,1,correct,arm2,2,arm22,bolt
276,23,bolt,0.016729664756,left,1,correct,arm2,3,arm23,bolt
277,24,bolt,0.900267689256,space,1,correct,target,NaN,targetNaN,bolt
278,24,coffeepot,1.18360733124,right,1,correct,path,1,path1,bolt
279,24,mosquito,0.216946218861,right,1,correct,path,2,path2,bolt
280,24,canoe,0.0502273305319,left,1,correct,path,3,path3,bolt
281,24,domino,0.333649682347,left,1,correct,decision,1,decision1,bolt
282,24,ambulance,1.10025452799,left,1,correct,arm1,1,arm11,bolt
283,24,trunk,0.133575907908,right,1,correct,arm1,2,arm12,bolt
284,24,peach,0.466915580211,right,1,correct,arm1,3,arm13,bolt
285,24,garlic,0.616928348783,right,1,correct,decision,2,decision2,bolt
286,24,mug,0.61693831021,left,1,correct,arm2,1,arm21,bolt
287,24,branch,0.0502427252941,left,1,correct,arm2,2,arm22,bolt
288,24,bolt,0.0169412684627,left,1,correct,arm2,3,arm23,bolt
289,25,lion,0.550316379173,space,1,correct,target,NaN,targetNaN,lion
290,25,coffeepot,0.600237624021,right,1,correct,path,1,path1,lion
291,25,mosquito,0.866912501166,right,1,correct,path,2,path2,lion
292,25,canoe,0.114335978171,left,1,correct,path,3,path3,lion
293,25,goose,0.817110792734,right,1,correct,decision,1,decision1,lion
294,25,sailor,0.550260233227,right,1,correct,arm1,1,arm11,lion
295,25,cooker,0.350302976556,left,1,correct,arm1,2,arm12,lion
296,25,tooth,0.0837509559933,right,1,correct,arm1,3,arm13,lion
297,25,crutches,0.616913256003,right,1,correct,decision,2,decision2,lion
298,25,stapler,0.633596736006,left,1,correct,arm2,1,arm21,lion
299,25,rose,0.0335679990239,left,1,correct,arm2,2,arm22,lion
300,25,lion,0.583587951725,right,1,correct,arm2,3,arm23,lion
301,26,bolt,0.433615028858,space,1,correct,target,NaN,targetNaN,bolt
302,26,coffeepot,1.01689870632,right,1,correct,path,1,path1,bolt
303,26,mosquito,0.0335758472793,right,1,correct,path,2,path2,bolt
304,26,canoe,0.16689487244,left,1,correct,path,3,path3,bolt
305,26,domino,0.466947577195,right,1,correct,decision,1,decision1,bolt
306,26,ambulance,1.2170757167,left,1,correct,arm1,1,arm11,bolt
307,26,trunk,0.116973325843,right,1,correct,arm1,2,arm12,bolt
308,26,peach,0.150275688618,right,1,correct,arm1,3,arm13,bolt
309,26,garlic,0.716952557908,left,1,correct,decision,2,decision2,bolt
310,26,mug,0.833564557834,left,1,correct,arm2,1,arm21,bolt
311,26,branch,0.0335728288628,left,1,correct,arm2,2,arm22,bolt
312,26,bolt,0.016896895133,left,1,correct,arm2,3,arm23,bolt
313,27,lion,0.533582790056,space,1,correct,target,NaN,targetNaN,lion
314,27,coffeepot,1.41691705934,right,1,correct,path,1,path1,lion
315,27,mosquito,1.20025368268,right,1,correct,path,2,path2,lion
316,27,canoe,0.0335586413275,left,1,correct,path,3,path3,lion
317,27,goose,4.75031408481,right,1,correct,decision,1,decision1,lion
318,27,sailor,0.716917844256,right,1,correct,arm1,1,arm11,lion
319,27,cooker,0.183573221089,left,1,correct,arm1,2,arm12,lion
320,27,tooth,0.083600328071,right,1,correct,arm1,3,arm13,lion
321,27,crutches,0.966903203866,right,1,correct,decision,2,decision2,lion
322,27,stapler,4.05020891712,left,1,correct,arm2,1,arm21,lion
323,27,rose,0.183573825052,left,1,correct,arm2,2,arm22,lion
324,27,lion,0.0669663529843,right,1,correct,arm2,3,arm23,lion
325,28,bolt,0.43361170846,space,1,correct,target,NaN,targetNaN,bolt
326,28,coffeepot,0.766918779816,right,1,correct,path,1,path1,bolt
327,28,mosquito,0.0835644067265,right,1,correct,path,2,path2,bolt
328,28,canoe,0.0835574641824,left,1,correct,path,3,path3,bolt
329,28,domino,0.433608689578,left,1,correct,decision,1,decision1,bolt
330,28,ambulance,1.65026089735,left,1,correct,arm1,1,arm11,bolt
331,28,trunk,0.0502258213237,right,1,correct,arm1,2,arm12,bolt
332,28,peach,0.316890133312,right,1,correct,arm1,3,arm13,bolt
333,28,garlic,0.650402469328,left,1,correct,decision,2,decision2,bolt
334,28,mug,0.650266632671,left,1,correct,arm2,1,arm21,bolt
335,28,branch,0.116928650532,left,1,correct,arm2,2,arm22,bolt
336,28,bolt,0.0334898175206,left,1,correct,arm2,3,arm23,bolt
337,29,bolt,0.616987513145,space,1,correct,target,NaN,targetNaN,bolt
338,29,coffeepot,0.567007103935,right,1,correct,path,1,path1,bolt
339,29,mosquito,0.166919021169,right,1,correct,path,2,path2,bolt
340,29,canoe,0.066986275604,left,1,correct,path,3,path3,bolt
341,29,domino,0.350259206956,right,1,correct,decision,1,decision1,bolt
342,29,ambulance,1.86696743965,left,1,correct,arm1,1,arm11,bolt
343,29,trunk,0.0834098546766,right,1,correct,arm1,2,arm12,bolt
344,29,peach,0.0835973096546,right,1,correct,arm1,3,arm13,bolt
345,29,garlic,1.7833749596,left,1,correct,decision,2,decision2,bolt
346,29,mug,1.53358399752,left,1,correct,arm2,1,arm21,bolt
347,29,branch,0.0335438502952,left,1,correct,arm2,2,arm22,bolt
348,29,bolt,0.0171513627283,left,1,correct,arm2,3,arm23,bolt
349,30,lion,0.400271613384,space,1,correct,target,NaN,targetNaN,lion
350,30,coffeepot,0.583634438459,right,1,correct,path,1,path1,lion
351,30,mosquito,0.0170004328247,right,1,correct,path,2,path2,lion
352,30,canoe,0.233582910849,left,1,correct,path,3,path3,lion
353,30,goose,0.266992735444,right,1,correct,decision,1,decision1,lion
354,30,sailor,1.1502442949,right,1,correct,arm1,1,arm11,lion
355,30,cooker,0.316926054657,left,1,correct,arm1,2,arm12,lion
356,30,tooth,0.0335749418009,right,1,correct,arm1,3,arm13,lion
357,30,crutches,4.01683591935,right,1,correct,decision,2,decision2,lion
358,30,stapler,0.733590759337,left,1,correct,arm2,1,arm21,lion
359,30,rose,0.0669268092606,left,1,correct,arm2,2,arm22,lion
360,30,lion,0.000320876715705,right,1,correct,arm2,3,arm23,lion
361,31,lion,0.383700726787,space,1,correct,target,NaN,targetNaN,lion
362,31,coffeepot,0.533580375137,right,1,correct,path,1,path1,lion
363,31,mosquito,0.116883069742,right,1,correct,path,2,path2,lion
364,31,canoe,0.133565644501,left,1,correct,path,3,path3,lion
365,31,goose,0.300264308229,left,1,correct,decision,1,decision1,lion
366,31,sailor,1.05028981552,right,1,correct,arm1,1,arm11,lion
367,31,cooker,0.000476334709674,left,1,correct,arm1,2,arm12,lion
368,31,tooth,0.100378894247,right,1,correct,arm1,3,arm13,lion
369,31,crutches,0.566927714739,left,1,correct,decision,2,decision2,lion
370,31,stapler,0.900280065369,left,1,correct,arm2,1,arm21,lion
371,31,rose,0.200028797379,left,1,correct,arm2,2,arm22,lion
372,31,lion,0.0502502718009,right,1,correct,arm2,3,arm23,lion
373,32,lion,0.466935502831,space,1,correct,target,NaN,targetNaN,lion
374,32,coffeepot,0.966932182433,right,1,correct,path,1,path1,lion
375,32,mosquito,0.0836099877488,right,1,correct,path,2,path2,lion
376,32,canoe,0.100262979977,left,1,correct,path,3,path3,lion
377,32,goose,0.333584782435,right,1,correct,decision,1,decision1,lion
378,32,sailor,0.816925148945,right,1,correct,arm1,1,arm11,lion
379,32,cooker,0.100331804249,left,1,correct,arm1,2,arm12,lion
380,32,tooth,0.00028284243308,right,1,correct,arm1,3,arm13,lion
381,32,crutches,3.18360763299,left,1,correct,decision,2,decision2,lion
382,32,stapler,1.81695352402,left,1,correct,arm2,1,arm21,lion
383,32,rose,0.083563501481,left,1,correct,arm2,2,arm22,lion
384,32,lion,2.76688738633,right,1,correct,arm2,3,arm23,lion
385,33,lion,0.633603075054,space,1,correct,target,NaN,targetNaN,lion
386,33,coffeepot,0.433534432203,right,1,correct,path,1,path1,lion
387,33,mosquito,0.0670783426613,right,1,correct,path,2,path2,lion
388,33,canoe,0.0836329290178,left,1,correct,path,3,path3,lion
389,33,goose,0.23360072053,right,1,correct,decision,1,decision1,lion
390,33,sailor,0.700247343862,right,1,correct,arm1,1,arm11,lion
391,33,cooker,0.133563229581,left,1,correct,arm1,2,arm12,lion
392,33,tooth,0.0669020568021,right,1,correct,arm1,3,arm13,lion
393,33,crutches,0.966987724649,left,1,correct,decision,2,decision2,lion
394,33,stapler,0.850240189815,left,1,correct,arm2,1,arm21,lion
395,33,rose,0.0669111127499,left,1,correct,arm2,2,arm22,lion
396,33,lion,0.90023780521,right,1,correct,arm2,3,arm23,lion
397,34,lion,0.416917361086,space,1,correct,target,NaN,targetNaN,lion
398,34,coffeepot,0.500249336008,right,1,correct,path,1,path1,lion
399,34,mosquito,0.0668902844191,right,1,correct,path,2,path2,lion
400,34,canoe,0.0169156102929,left,1,correct,path,3,path3,lion
401,34,goose,1.3835790772,right,1,correct,decision,1,decision1,lion
402,34,sailor,0.683577145217,right,1,correct,arm1,1,arm11,lion
403,34,cooker,0.100231586723,left,1,correct,arm1,2,arm12,lion
404,34,tooth,0.150240069022,right,1,correct,arm1,3,arm13,lion
405,34,crutches,1.15025727497,left,1,correct,decision,2,decision2,lion
406,34,stapler,6.88352021459,left,1,correct,arm2,1,arm21,lion
407,34,rose,0.250231677201,left,1,correct,arm2,2,arm22,lion
408,34,lion,0.0669213759247,right,1,correct,arm2,3,arm23,lion
409,35,bolt,0.500255071558,space,1,correct,target,NaN,targetNaN,bolt
410,35,coffeepot,0.366941781482,right,1,correct,path,1,path1,bolt
411,35,mosquito,0.100275658304,right,1,correct,path,2,path2,bolt
412,35,canoe,0.150231013307,left,1,correct,path,3,path3,bolt
413,35,domino,0.750311971875,right,1,correct,decision,1,decision1,bolt
414,35,ambulance,1.16700595687,left,1,correct,arm1,1,arm11,bolt
415,35,trunk,0.350249547511,right,1,correct,arm1,2,arm12,bolt
416,35,peach,0.0669201682322,right,1,correct,arm1,3,arm13,bolt
417,35,garlic,0.683665590128,right,1,correct,decision,2,decision2,bolt
418,35,mug,2.53357856418,left,1,correct,arm2,1,arm21,bolt
419,35,branch,0.0169056488667,left,1,correct,arm2,2,arm22,bolt
420,35,bolt,0.000329026952386,left,1,correct,arm2,3,arm23,bolt
421,36,lion,0.533614485292,space,1,correct,target,NaN,targetNaN,lion
422,36,coffeepot,0.333538296167,right,1,correct,path,1,path1,lion
423,36,mosquito,0.0502291417215,right,1,correct,path,2,path2,lion
424,36,canoe,0.13356413506,left,1,correct,path,3,path3,lion
425,36,goose,0.250508180587,right,1,correct,decision,1,decision1,lion
426,36,sailor,0.450310885208,right,1,correct,arm1,1,arm11,lion
427,36,cooker,0.116925933864,left,1,correct,arm1,2,arm12,lion
428,36,tooth,0.100292562274,right,1,correct,arm1,3,arm13,lion
429,36,crutches,0.567027630284,right,1,correct,decision,2,decision2,lion
430,36,stapler,0.650258784415,left,1,correct,arm2,1,arm21,lion
431,36,rose,0.100266904337,left,1,correct,arm2,2,arm22,lion
432,36,lion,0.133597943466,right,1,correct,arm2,3,arm23,lion
433,37,lion,0.516979000764,space,1,correct,target,NaN,targetNaN,lion
434,37,coffeepot,3.60021256958,right,1,correct,path,1,path1,lion
435,37,mosquito,0.48357068561,right,1,correct,path,2,path2,lion
436,37,canoe,0.100253018783,left,1,correct,path,3,path3,lion
437,37,goose,2.43361925473,right,1,correct,decision,1,decision1,lion
438,37,sailor,0.900267991005,right,1,correct,arm1,1,arm11,lion
439,37,cooker,0.0835791979916,left,1,correct,arm1,2,arm12,lion
440,37,tooth,0.116964873858,right,1,correct,arm1,3,arm13,lion
441,37,crutches,0.516959078144,left,1,correct,decision,2,decision2,lion
442,37,stapler,0.650255765533,left,1,correct,arm2,1,arm21,lion
443,37,rose,0.0667465990409,left,1,correct,arm2,2,arm22,lion
444,37,lion,0.0669135274366,right,1,correct,arm2,3,arm23,lion
445,38,lion,0.267006017268,space,1,correct,target,NaN,targetNaN,lion
446,38,coffeepot,1.26700480981,right,1,correct,path,1,path1,lion
447,38,mosquito,0.0500543648377,right,1,correct,path,2,path2,lion
448,38,canoe,0.0835761793423,left,1,correct,path,3,path3,lion
449,38,goose,0.2836786306,left,1,correct,decision,1,decision1,lion
450,38,sailor,0.700271492591,right,1,correct,arm1,1,arm11,lion
451,38,cooker,0.100192042999,left,1,correct,arm1,2,arm12,lion
452,38,tooth,0.116934687831,right,1,correct,arm1,3,arm13,lion
453,38,crutches,0.633601263864,left,1,correct,decision,2,decision2,lion
454,38,stapler,0.650322778383,left,1,correct,arm2,1,arm21,lion
455,38,rose,0.0502867966425,left,1,correct,arm2,2,arm22,lion
456,38,lion,0.0169095729943,right,1,correct,arm2,3,arm23,lion
457,39,lion,0.466918598861,space,1,correct,target,NaN,targetNaN,lion
458,39,coffeepot,2.20023496752,right,1,correct,path,1,path1,lion
459,39,mosquito,0.050218274584,right,1,correct,path,2,path2,lion
460,39,canoe,0.0168938764837,left,1,correct,path,3,path3,lion
461,39,goose,1.76690791291,left,1,correct,decision,1,decision1,lion
462,39,sailor,0.383567606797,right,1,correct,arm1,1,arm11,lion
463,39,cooker,0.0835586716421,left,1,correct,arm1,2,arm12,lion
464,39,tooth,0.10025996156,right,1,correct,arm1,3,arm13,lion
465,39,crutches,0.433601445053,right,1,correct,decision,2,decision2,lion
466,39,stapler,0.800236537354,left,1,correct,arm2,1,arm21,lion
467,39,rose,0.0335737343412,left,1,correct,arm2,2,arm22,lion
468,39,lion,0.0668896804564,right,1,correct,arm2,3,arm23,lion
469,40,bolt,0.71694652061,space,1,correct,target,NaN,targetNaN,bolt
470,40,coffeepot,0.400413789088,right,1,correct,path,1,path1,bolt
471,40,mosquito,0.0669029625133,right,1,correct,path,2,path2,bolt
472,40,canoe,0.0335510950536,left,1,correct,path,3,path3,bolt
473,40,domino,0.71699300711,right,1,correct,decision,1,decision1,bolt
474,40,ambulance,1.03366791457,left,1,correct,arm1,1,arm11,bolt
475,40,trunk,0.100260867272,right,1,correct,arm1,2,arm12,bolt
476,40,peach,0.133607904892,right,1,correct,arm1,3,arm13,bolt
477,40,garlic,1.13357892632,right,1,correct,decision,2,decision2,bolt
478,40,mug,0.733656564727,left,1,correct,arm2,1,arm21,bolt
479,40,branch,0.0336156929843,left,1,correct,arm2,2,arm22,bolt
480,40,bolt,0.0169074600562,left,1,correct,arm2,3,arm23,bolt
481,41,lion,1.45024960767,space,1,correct,target,NaN,targetNaN,lion
482,41,coffeepot,1.05024966807,right,1,correct,path,1,path1,lion
483,41,mosquito,0.0169204401318,right,1,correct,path,2,path2,lion
484,41,canoe,0.0168869337067,left,1,correct,path,3,path3,lion
485,41,goose,0.350305693224,right,1,correct,decision,1,decision1,lion
486,41,sailor,0.516975076636,right,1,correct,arm1,1,arm11,lion
487,41,cooker,0.0502514792606,left,1,correct,arm1,2,arm12,lion
488,41,tooth,0.0669322425965,right,1,correct,arm1,3,arm13,lion
489,41,crutches,1.16708202567,left,1,correct,decision,2,decision2,lion
490,41,stapler,1.16691207839,left,1,correct,arm2,1,arm21,lion
491,41,rose,0.0500908901449,left,1,correct,arm2,2,arm22,lion
492,41,lion,1.08357165148,right,1,correct,arm2,3,arm23,lion
493,42,lion,0.616923217196,space,1,correct,target,NaN,targetNaN,lion
494,42,coffeepot,0.550241518067,right,1,correct,path,1,path1,lion
495,42,mosquito,0.033570111962,right,1,correct,path,2,path2,lion
496,42,canoe,0.0502433292568,left,1,correct,path,3,path3,lion
497,42,goose,0.250160740456,left,1,correct,decision,1,decision1,lion
498,42,sailor,0.566938883625,right,1,correct,arm1,1,arm11,lion
499,42,cooker,0.0835716517176,left,1,correct,arm1,2,arm12,lion
500,42,tooth,0.133609414101,right,1,correct,arm1,3,arm13,lion
501,42,crutches,0.566945826402,left,1,correct,decision,2,decision2,lion
502,42,stapler,0.583619949175,left,1,correct,arm2,1,arm21,lion
503,42,rose,0.0336567459162,left,1,correct,arm2,2,arm22,lion
504,42,lion,0.0169337219559,right,1,correct,arm2,3,arm23,lion
505,43,lion,0.450295188464,space,1,correct,target,NaN,targetNaN,lion
506,43,coffeepot,1.76690851664,right,1,correct,path,1,path1,lion
507,43,mosquito,0.0835562567227,right,1,correct,path,2,path2,lion
508,43,canoe,0.116905105533,left,1,correct,path,3,path3,lion
509,43,goose,2.25029265299,right,1,correct,decision,1,decision1,lion
510,43,sailor,0.933584238868,right,1,correct,arm1,1,arm11,lion
511,43,cooker,0.0170285059139,left,1,correct,arm1,2,arm12,lion
512,43,tooth,0.166910267202,right,1,correct,arm1,3,arm13,lion
513,43,crutches,0.733602833468,left,1,correct,decision,2,decision2,lion
514,43,stapler,0.766945343465,left,1,correct,arm2,1,arm21,lion
515,43,rose,0.350300863385,left,1,correct,arm2,2,arm22,lion
516,43,lion,0.0668930008542,right,1,correct,arm2,3,arm23,lion
517,44,bolt,0.383591755293,space,1,correct,target,NaN,targetNaN,bolt
518,44,coffeepot,0.367041395046,right,1,correct,path,1,path1,bolt
519,44,mosquito,0.0502837784588,right,1,correct,path,2,path2,bolt
520,44,canoe,0.0835625957698,left,1,correct,path,3,path3,bolt
521,44,domino,0.283620069968,left,1,correct,decision,1,decision1,bolt
522,44,ambulance,1.16693109577,left,1,correct,arm1,1,arm11,bolt
523,44,trunk,0.0335535097402,right,1,correct,arm1,2,arm12,bolt
524,44,peach,0.13356685196,right,1,correct,arm1,3,arm13,bolt
525,44,garlic,1.75029023807,left,1,correct,decision,2,decision2,bolt
526,44,mug,0.666933208704,left,1,correct,arm2,1,arm21,bolt
527,44,branch,0.0169578706846,left,1,correct,arm2,2,arm22,bolt
528,44,bolt,0.000248430529609,left,1,correct,arm2,3,arm23,bolt
529,45,lion,0.600347199012,space,1,correct,target,NaN,targetNaN,lion
530,45,coffeepot,0.50024541188,right,1,correct,path,1,path1,lion
531,45,mosquito,0.0835619920399,right,1,correct,path,2,path2,lion
532,45,canoe,0.166903626407,left,1,correct,path,3,path3,lion
533,45,goose,0.18377244845,left,1,correct,decision,1,decision1,lion
534,45,sailor,0.583624778781,right,1,correct,arm1,1,arm11,lion
535,45,cooker,0.100229171803,left,1,correct,arm1,2,arm12,lion
536,45,tooth,0.116896049818,right,1,correct,arm1,3,arm13,lion
537,45,crutches,0.633655900601,right,1,correct,decision,2,decision2,lion
538,45,stapler,0.450277077034,left,1,correct,arm2,1,arm21,lion
539,45,rose,0.0669425060041,left,1,correct,arm2,2,arm22,lion
540,45,lion,0.0502282360103,right,1,correct,arm2,3,arm23,lion
541,46,lion,0.433599633863,space,1,correct,target,NaN,targetNaN,lion
542,46,coffeepot,0.467014892027,right,1,correct,path,1,path1,lion
543,46,mosquito,0.0668736819644,right,1,correct,path,2,path2,lion
544,46,canoe,0.0669138294179,left,1,correct,path,3,path3,lion
545,46,goose,0.216917844256,right,1,correct,decision,1,decision1,lion
546,46,sailor,0.433636460686,right,1,correct,arm1,1,arm11,lion
547,46,cooker,0.116911746329,left,1,correct,arm1,2,arm12,lion
548,46,tooth,0.100231586723,right,1,correct,arm1,3,arm13,lion
549,46,crutches,1.26699665957,right,1,correct,decision,2,decision2,lion
550,46,stapler,0.533595166402,left,1,correct,arm2,1,arm21,lion
551,46,rose,0.0502541959286,left,1,correct,arm2,2,arm22,lion
552,46,lion,0.000258391955867,right,1,correct,arm2,3,arm23,lion
553,47,bolt,0.400275235763,space,1,correct,target,NaN,targetNaN,bolt
554,47,coffeepot,1.2502470722,right,1,correct,path,1,path1,bolt
555,47,mosquito,0.0169968104456,right,1,correct,path,2,path2,bolt
556,47,canoe,0.03370866552,left,1,correct,path,3,path3,bolt
557,47,domino,0.233164533274,right,1,correct,decision,1,decision1,bolt
558,47,ambulance,2.35024924553,left,1,correct,arm1,1,arm11,bolt
559,47,trunk,0.30028906092,right,1,correct,arm1,2,arm12,bolt
560,47,peach,0.0335532079916,right,1,correct,arm1,3,arm13,bolt
561,47,garlic,1.71691331617,right,1,correct,decision,2,decision2,bolt
562,47,mug,0.533574640052,left,1,correct,arm2,1,arm21,bolt
563,47,branch,0.000239978544414,left,1,correct,arm2,2,arm22,bolt
564,47,bolt,0.0334330676123,left,1,correct,arm2,3,arm23,bolt
565,48,lion,0.583600328071,space,1,correct,target,NaN,targetNaN,lion
566,48,coffeepot,2.63361665886,right,1,correct,path,1,path1,lion
567,48,mosquito,0.0670535904355,right,1,correct,path,2,path2,lion
568,48,canoe,0.0502351787873,left,1,correct,path,3,path3,lion
569,48,goose,4.35028456314,left,1,correct,decision,1,decision1,lion
570,48,sailor,0.550334188854,right,1,correct,arm1,1,arm11,lion
571,48,cooker,0.0835976114031,left,1,correct,arm1,2,arm12,lion
572,48,tooth,0.066954882117,right,1,correct,arm1,3,arm13,lion
573,48,crutches,1.51721052709,left,1,correct,decision,2,decision2,lion
574,48,stapler,0.600248490693,left,1,correct,arm2,1,arm21,lion
575,48,rose,0.0336078444961,left,1,correct,arm2,2,arm22,lion
576,48,lion,1.36668972881,right,1,correct,arm2,3,arm23,lion
577,49,bolt,0.41691132402,space,1,correct,target,NaN,targetNaN,bolt
578,49,coffeepot,1.81699910481,right,1,correct,path,1,path1,bolt
579,49,mosquito,0.0169506261591,right,1,correct,path,2,path2,bolt
580,49,canoe,0.183628763538,left,1,correct,path,3,path3,bolt
581,49,domino,0.783557886723,right,1,correct,decision,1,decision1,bolt
582,49,ambulance,1.13359613228,left,1,correct,arm1,1,arm11,bolt
583,49,trunk,0.0335779604502,right,1,correct,arm1,2,arm12,bolt
584,49,peach,0.0335646786261,right,1,correct,arm1,3,arm13,bolt
585,49,garlic,0.617020415841,left,1,correct,decision,2,decision2,bolt
586,49,mug,0.7167732534,left,1,correct,arm2,1,arm21,bolt
587,49,branch,0.0169080637861,left,1,correct,arm2,2,arm22,bolt
588,49,bolt,0.0503121530637,left,1,correct,arm2,3,arm23,bolt
589,50,bolt,0.433633744018,space,-1,miss,target,NaN,targetNaN,bolt
590,50,coffeepot,0.516938853543,right,-1,miss,path,1,path1,bolt
591,50,mosquito,1.85025075474,right,-1,miss,path,2,path2,bolt
592,50,canoe,0.113409571117,left,-1,miss,path,3,path3,bolt
593,50,goose,4.40021335427,right,-1,miss,decision,1,decision1,bolt
594,50,sailor,0.550251177279,right,-1,miss,arm1,1,arm11,bolt
595,50,cooker,0.0669271110091,left,-1,miss,arm1,2,arm12,bolt
596,50,tooth,0.116907520685,right,-1,miss,arm1,3,arm13,bolt
597,50,crutches,1.03363953996,right,-1,miss,decision,2,decision2,bolt
598,50,stapler,1.43365789275,left,-1,miss,arm2,1,arm21,bolt
599,50,rose,0.0336181076709,left,-1,miss,arm2,2,arm22,bolt
600,50,lion,0.016890555853,right,-1,miss,arm2,3,arm23,bolt
