pic_index,trial_num,pic_name,rt,resp,feedback_code,feedback,segment,segment_index,pic_type,trial_target
1,1,beaver,17.6333664171,space,1,correct,target,NaN,targetNaN,beaver
2,1,trophy,1.53357614926,left,1,correct,path,1,path1,beaver
3,1,astronaut,0.233582910849,right,1,correct,path,2,path2,beaver
4,1,robot,0.116890012519,right,1,correct,path,3,path3,beaver
5,1,pigeon,1.45026590815,right,1,correct,decision,1,decision1,beaver
6,1,bus,0.800242876401,right,1,correct,arm1,1,arm11,beaver
7,1,deer,0.483582156245,left,1,correct,arm1,2,arm12,beaver
8,1,fist,0.183560844744,left,1,correct,arm1,3,arm13,beaver
9,1,stepladder,0.700280548539,right,1,correct,decision,2,decision2,beaver
10,1,calc,0.766928439494,right,1,correct,arm2,1,arm21,beaver
11,1,tongue,0.250191831728,right,1,correct,arm2,2,arm22,beaver
12,1,beaver,0.383575153304,left,1,correct,arm2,3,arm23,beaver
13,2,beaver,1.23365988513,space,1,correct,target,NaN,targetNaN,beaver
14,2,trophy,0.466911052121,left,1,correct,path,1,path1,beaver
15,2,astronaut,0.233563289978,right,1,correct,path,2,path2,beaver
16,2,robot,0.183572315611,right,1,correct,path,3,path3,beaver
17,2,pigeon,1.05033298139,right,1,correct,decision,1,decision1,beaver
18,2,bus,0.883618017193,right,1,correct,arm1,1,arm11,beaver
19,2,deer,0.600269621005,left,1,correct,arm1,2,arm12,beaver
20,2,fist,1.0002511472,left,1,correct,arm1,3,arm13,beaver
21,2,stepladder,0.567666667281,right,1,correct,decision,2,decision2,beaver
22,2,calc,0.600265093148,right,1,correct,arm2,1,arm21,beaver
23,2,tongue,0.583667642903,right,1,correct,arm2,2,arm22,beaver
24,2,beaver,0.250243449816,left,1,correct,arm2,3,arm23,beaver
25,3,arc,0.650304364972,space,-1,miss,target,NaN,targetNaN,arc
26,3,trophy,0.500260504894,left,-1,miss,path,1,path1,arc
27,3,astronaut,0.300230802037,right,-1,miss,path,2,path2,arc
28,3,robot,0.216962519335,right,-1,miss,path,3,path3,arc
29,3,pigeon,0.983590910211,left,-1,miss,decision,1,decision1,arc
30,3,bus,0.417047160678,right,-1,miss,arm1,1,arm11,arc
31,3,deer,0.266933571082,left,-1,miss,arm1,2,arm12,arc
32,3,fist,0.833599271718,left,-1,miss,arm1,3,arm13,arc
33,3,stepladder,0.550271703862,left,-1,miss,decision,2,decision2,arc
34,3,calc,0.367064638296,right,-1,miss,arm2,1,arm21,arc
35,3,tongue,0.0835927817971,right,-1,miss,arm2,2,arm22,arc
36,3,beaver,0.233617021237,left,-1,miss,arm2,3,arm23,arc
37,4,beaver,3.25022050831,space,1,correct,target,NaN,targetNaN,beaver
38,4,trophy,0.433585446561,left,1,correct,path,1,path1,beaver
39,4,astronaut,0.233555743471,right,1,correct,path,2,path2,beaver
40,4,robot,0.133620281005,right,1,correct,path,3,path3,beaver
41,4,pigeon,0.633626620052,right,1,correct,decision,1,decision1,beaver
42,4,bus,0.850268262671,right,1,correct,arm1,1,arm11,beaver
43,4,deer,0.317038648296,left,1,correct,arm1,2,arm12,beaver
44,4,fist,1.21690365672,left,1,correct,arm1,3,arm13,beaver
45,4,stepladder,0.46705232258,right,1,correct,decision,2,decision2,beaver
46,4,calc,0.5502738168,right,1,correct,arm2,1,arm21,beaver
47,4,tongue,0.616970307194,right,1,correct,arm2,2,arm22,beaver
48,4,beaver,0.300262799021,left,1,correct,arm2,3,arm23,beaver
49,5,beaver,0.416944226716,space,1,correct,target,NaN,targetNaN,beaver
50,5,trophy,0.916929737432,left,1,correct,path,1,path1,beaver
51,5,astronaut,0.333627948305,right,1,correct,path,2,path2,beaver
52,5,robot,0.116928650532,right,1,correct,path,3,path3,beaver
53,5,pigeon,0.91704202909,left,1,correct,decision,1,decision1,beaver
54,5,bus,3.86683824356,right,1,correct,arm1,1,arm11,beaver
55,5,deer,0.533563169418,left,1,correct,arm1,2,arm12,beaver
56,5,fist,0.716869546566,left,1,correct,arm1,3,arm13,beaver
57,5,stepladder,0.58357889601,left,1,correct,decision,2,decision2,beaver
58,5,calc,0.350323201157,right,1,correct,arm2,1,arm21,beaver
59,5,tongue,0.0669053771999,right,1,correct,arm2,2,arm22,beaver
60,5,beaver,0.266896140296,left,1,correct,arm2,3,arm23,beaver
61,6,arc,0.700289302273,space,1,correct,target,NaN,targetNaN,arc
62,6,trophy,0.550240612356,left,1,correct,path,1,path1,arc
63,6,astronaut,0.716852642363,right,1,correct,path,2,path2,arc
64,6,robot,0.233551517362,right,1,correct,path,3,path3,arc
65,6,watch,1.1002352091,left,1,correct,decision,1,decision1,arc
66,6,clover,0.550282872748,left,1,correct,arm1,1,arm11,arc
67,6,radio,0.800228990614,right,1,correct,arm1,2,arm12,arc
68,6,wing,0.400259538786,left,1,correct,arm1,3,arm13,arc
69,6,holly,0.466962670209,left,1,correct,decision,2,decision2,arc
70,6,match,0.466916183708,right,1,correct,arm2,1,arm21,arc
71,6,baby,0.950213988312,left,1,correct,arm2,2,arm22,arc
72,6,arc,1.15025214339,left,1,correct,arm2,3,arm23,arc
73,7,arc,0.516935834894,space,1,correct,target,NaN,targetNaN,arc
74,7,trophy,1.43355676997,left,1,correct,path,1,path1,arc
75,7,astronaut,0.233562082518,right,1,correct,path,2,path2,arc
76,7,robot,0.183598275529,right,1,correct,path,3,path3,arc
77,7,watch,2.03361176862,right,1,correct,decision,1,decision1,arc
78,7,clover,0.716910599498,left,1,correct,arm1,1,arm11,arc
79,7,radio,0.400211543078,right,1,correct,arm1,2,arm12,arc
80,7,wing,0.21697549941,left,1,correct,arm1,3,arm13,arc
81,7,holly,0.800283627352,left,1,correct,decision,2,decision2,arc
82,7,match,0.550250573549,right,1,correct,arm2,1,arm21,arc
83,7,baby,0.61697966489,left,1,correct,arm2,2,arm22,arc
84,7,arc,0.866958383704,left,1,correct,arm2,3,arm23,arc
85,8,arc,0.233722068137,space,1,correct,target,NaN,targetNaN,arc
86,8,trophy,4.15024640784,left,1,correct,path,1,path1,arc
87,8,astronaut,0.416895627277,right,1,correct,path,2,path2,arc
88,8,robot,0.533568602521,right,1,correct,path,3,path3,arc
89,8,watch,3.00012859213,left,1,correct,decision,1,decision1,arc
90,8,clover,0.416919776006,left,1,correct,arm1,1,arm11,arc
91,8,radio,0.550310039893,right,1,correct,arm1,2,arm12,arc
92,8,wing,0.750244959258,left,1,correct,arm1,3,arm13,arc
93,8,holly,1.16698573227,left,1,correct,decision,2,decision2,arc
94,8,match,0.66712458781,right,1,correct,arm2,1,arm21,arc
95,8,baby,0.650252445368,left,1,correct,arm2,2,arm22,arc
96,8,arc,0.433582427911,left,1,correct,arm2,3,arm23,arc
97,9,arc,0.333644248778,space,1,correct,target,NaN,targetNaN,arc
98,9,trophy,0.416919474257,left,1,correct,path,1,path1,arc
99,9,astronaut,0.550269288942,right,1,correct,path,2,path2,arc
100,9,robot,0.700220176484,right,1,correct,path,3,path3,arc
101,9,watch,0.55025570537,left,1,correct,decision,1,decision1,arc
102,9,clover,1.76691062958,left,1,correct,arm1,1,arm11,arc
103,9,radio,0.483593324898,right,1,correct,arm1,2,arm12,arc
104,9,wing,0.0835743683856,left,1,correct,arm1,3,arm13,arc
105,9,holly,0.716981838457,right,1,correct,decision,2,decision2,arc
106,9,match,1.86702056695,right,1,correct,arm2,1,arm21,arc
107,9,baby,0.400064839516,left,1,correct,arm2,2,arm22,arc
108,9,arc,0.183631178224,left,1,correct,arm2,3,arm23,arc
109,10,beaver,0.183627857827,space,0,wrong,target,NaN,targetNaN,beaver
110,10,trophy,0.866939970525,left,0,wrong,path,1,path1,beaver
111,10,astronaut,0.433609293308,right,0,wrong,path,2,path2,beaver
112,10,robot,0.916930341162,right,0,wrong,path,3,path3,beaver
113,10,watch,2.86690253974,right,0,wrong,decision,1,decision1,beaver
114,10,clover,0.383587831166,left,0,wrong,arm1,1,arm11,beaver
115,10,radio,0.350248943781,right,0,wrong,arm1,2,arm12,beaver
116,10,wing,0.233307011193,left,0,wrong,arm1,3,arm13,beaver
117,10,stepladder,0.433604161954,left,0,wrong,decision,2,decision2,beaver
118,10,calc,3.58355655847,right,0,wrong,arm2,1,arm21,beaver
119,10,tongue,0.283575092675,right,0,wrong,arm2,2,arm22,beaver
120,10,beaver,0.183566882275,left,0,wrong,arm2,3,arm23,beaver
121,11,beaver,0.300290871877,space,1,correct,target,NaN,targetNaN,beaver
122,11,trophy,0.783912571846,left,1,correct,path,1,path1,beaver
123,11,astronaut,0.833571802592,right,1,correct,path,2,path2,beaver
124,11,robot,0.633550551487,right,1,correct,path,3,path3,beaver
125,11,pigeon,0.500274994178,left,1,correct,decision,1,decision1,beaver
126,11,bus,1.78359712847,right,1,correct,arm1,1,arm11,beaver
127,11,deer,0.517115743365,left,1,correct,arm1,2,arm12,beaver
128,11,fist,0.266928439261,left,1,correct,arm1,3,arm13,beaver
129,11,stepladder,15.6500942709,right,1,correct,decision,2,decision2,beaver
130,11,calc,0.833547351882,right,1,correct,arm2,1,arm21,beaver
131,11,tongue,0.483594230609,right,1,correct,arm2,2,arm22,beaver
132,11,beaver,0.166905739577,left,1,correct,arm2,3,arm23,beaver
133,12,beaver,0.650089440867,space,1,correct,target,NaN,targetNaN,beaver
134,12,trophy,0.916895929025,left,1,correct,path,1,path1,beaver
135,12,astronaut,0.533604222117,right,1,correct,path,2,path2,beaver
136,12,robot,0.266989414813,right,1,correct,path,3,path3,beaver
137,12,pigeon,3.18304768368,left,1,correct,decision,1,decision1,beaver
138,12,bus,0.750212660059,right,1,correct,arm1,1,arm11,beaver
139,12,deer,0.383585718228,left,1,correct,arm1,2,arm12,beaver
140,12,fist,0.266897045774,left,1,correct,arm1,3,arm13,beaver
141,12,stepladder,0.48366396036,right,1,correct,decision,2,decision2,beaver
142,12,calc,0.450313601876,right,1,correct,arm2,1,arm21,beaver
143,12,tongue,0.217083263211,right,1,correct,arm2,2,arm22,beaver
144,12,beaver,0.217001459096,left,1,correct,arm2,3,arm23,beaver
145,13,arc,0.650256369263,space,1,correct,target,NaN,targetNaN,arc
146,13,trophy,1.43357759807,left,1,correct,path,1,path1,arc
147,13,astronaut,0.500256278785,right,1,correct,path,2,path2,arc
148,13,robot,0.18359525688,right,1,correct,path,3,path3,arc
149,13,watch,3.60021800315,right,1,correct,decision,1,decision1,arc
150,13,clover,0.70031314902,left,1,correct,arm1,1,arm11,arc
151,13,radio,0.33356576506,right,1,correct,arm1,2,arm12,arc
152,13,wing,0.2169072791,left,1,correct,arm1,3,arm13,arc
153,13,holly,0.466957538622,left,1,correct,decision,2,decision2,arc
154,13,match,0.533628371079,right,1,correct,arm2,1,arm21,arc
155,13,baby,0.733726595994,left,1,correct,arm2,2,arm22,arc
156,13,arc,0.233623963781,left,1,correct,arm2,3,arm23,arc
157,14,arc,0.200324317906,space,-1,miss,target,NaN,targetNaN,arc
158,14,trophy,1.25025492045,left,-1,miss,path,1,path1,arc
159,14,astronaut,0.30003791349,right,-1,miss,path,2,path2,arc
160,14,robot,0.100235208869,right,-1,miss,path,3,path3,arc
161,14,pigeon,2.51695787068,left,-1,miss,decision,1,decision1,arc
162,14,bus,0.750318612903,right,-1,miss,arm1,1,arm11,arc
163,14,deer,0.283561207121,left,-1,miss,arm1,2,arm12,arc
164,14,fist,0.333598667989,left,-1,miss,arm1,3,arm13,arc
165,14,stepladder,0.966917994898,right,-1,miss,decision,2,decision2,arc
166,14,calc,0.750407963293,right,-1,miss,arm2,1,arm21,arc
167,14,tongue,0.250278163701,right,-1,miss,arm2,2,arm22,arc
168,14,beaver,0.200272398302,left,-1,miss,arm2,3,arm23,arc
169,15,beaver,0.517280860571,space,-1,miss,target,NaN,targetNaN,beaver
170,15,trophy,0.316954731243,left,-1,miss,path,1,path1,beaver
171,15,astronaut,0.466928861802,right,-1,miss,path,2,path2,beaver
172,15,robot,0.166732472135,right,-1,miss,path,3,path3,beaver
173,15,watch,3.3169559387,right,-1,miss,decision,1,decision1,beaver
174,15,clover,0.533883140422,left,-1,miss,arm1,1,arm11,beaver
175,15,radio,0.183562655933,right,-1,miss,arm1,2,arm12,beaver
176,15,wing,0.200289604021,left,-1,miss,arm1,3,arm13,beaver
177,15,holly,0.56719516241,left,-1,miss,decision,2,decision2,beaver
178,15,match,0.516956964973,right,-1,miss,arm2,1,arm21,beaver
179,15,baby,0.550348074408,left,-1,miss,arm2,2,arm22,beaver
180,15,arc,0.283576903865,left,-1,miss,arm2,3,arm23,beaver
181,16,beaver,1.45022123284,space,1,correct,target,NaN,targetNaN,beaver
182,16,trophy,0.316943562357,left,1,correct,path,1,path1,beaver
183,16,astronaut,0.4335815222,right,1,correct,path,2,path2,beaver
184,16,robot,0.0835360321216,right,1,correct,path,3,path3,beaver
185,16,pigeon,0.383622847032,right,1,correct,decision,1,decision1,beaver
186,16,bus,0.666905739345,right,1,correct,arm1,1,arm11,beaver
187,16,deer,0.2338304359,left,1,correct,arm1,2,arm12,beaver
188,16,fist,0.667153264396,left,1,correct,arm1,3,arm13,beaver
189,16,stepladder,0.750502747251,left,1,correct,decision,2,decision2,beaver
190,16,calc,0.516970548779,right,1,correct,arm2,1,arm21,beaver
191,16,tongue,0.283606788144,right,1,correct,arm2,2,arm22,beaver
192,16,beaver,0.350241095293,left,1,correct,arm2,3,arm23,beaver
193,17,arc,0.533675461076,space,1,correct,target,NaN,targetNaN,arc
194,17,trophy,1.08357255696,left,1,correct,path,1,path1,arc
195,17,astronaut,0.416927624261,right,1,correct,path,2,path2,arc
196,17,robot,0.300016783411,right,1,correct,path,3,path3,arc
197,17,watch,0.900272217114,left,1,correct,decision,1,decision1,arc
198,17,clover,0.633594924817,left,1,correct,arm1,1,arm11,arc
199,17,radio,0.283576903865,right,1,correct,arm1,2,arm12,arc
200,17,wing,0.250260052038,left,1,correct,arm1,3,arm13,arc
201,17,holly,2.28371092957,left,1,correct,decision,2,decision2,arc
202,17,match,0.416926718783,right,1,correct,arm2,1,arm21,arc
203,17,baby,0.383613791317,left,1,correct,arm2,2,arm22,arc
204,17,arc,0.733594381483,left,1,correct,arm2,3,arm23,arc
205,18,beaver,0.316957448144,space,1,correct,target,NaN,targetNaN,beaver
206,18,trophy,0.366919142194,left,1,correct,path,1,path1,beaver
207,18,astronaut,0.183591634501,right,1,correct,path,2,path2,beaver
208,18,robot,0.800219934899,right,1,correct,path,3,path3,beaver
209,18,pigeon,0.533589129336,left,1,correct,decision,1,decision1,beaver
210,18,bus,0.56692922418,right,1,correct,arm1,1,arm11,beaver
211,18,deer,0.400299384492,left,1,correct,arm1,2,arm12,beaver
212,18,fist,0.183567184024,left,1,correct,arm1,3,arm13,beaver
213,18,stepladder,0.500250241719,right,1,correct,decision,2,decision2,beaver
214,18,calc,0.716894902755,right,1,correct,arm2,1,arm21,beaver
215,18,tongue,0.583614817355,right,1,correct,arm2,2,arm22,beaver
216,18,beaver,0.166993882507,left,1,correct,arm2,3,arm23,beaver
217,19,arc,0.933572164737,space,-1,miss,target,NaN,targetNaN,arc
218,19,trophy,0.900237804977,left,-1,miss,path,1,path1,arc
219,19,astronaut,0.583568934817,right,-1,miss,path,2,path2,arc
220,19,robot,0.216719824122,right,-1,miss,path,3,path3,arc
221,19,pigeon,1.28362127743,left,-1,miss,decision,1,decision1,arc
222,19,bus,0.466930069495,right,-1,miss,arm1,1,arm11,arc
223,19,deer,0.166986637982,left,-1,miss,arm1,2,arm12,arc
224,19,fist,0.166916908231,left,-1,miss,arm1,3,arm13,arc
225,19,stepladder,0.400345870759,left,-1,miss,decision,2,decision2,arc
226,19,calc,0.333768011071,right,-1,miss,arm2,1,arm21,arc
227,19,tongue,0.116924122674,right,-1,miss,arm2,2,arm22,arc
228,19,beaver,0.183594954899,left,-1,miss,arm2,3,arm23,arc
229,20,arc,2.00024571386,space,1,correct,target,NaN,targetNaN,arc
230,20,trophy,0.800057534361,left,1,correct,path,1,path1,arc
231,20,astronaut,0.333715789486,right,1,correct,path,2,path2,arc
232,20,robot,0.250263976399,right,1,correct,path,3,path3,arc
233,20,watch,0.500239072833,right,1,correct,decision,1,decision1,arc
234,20,clover,0.383402791107,left,1,correct,arm1,1,arm11,arc
235,20,radio,0.217032550601,right,1,correct,arm1,2,arm12,arc
236,20,wing,0.233578382991,left,1,correct,arm1,3,arm13,arc
237,20,holly,0.400279159658,left,1,correct,decision,2,decision2,arc
238,20,match,0.417007013224,right,1,correct,arm2,1,arm21,arc
239,20,baby,0.600273545366,left,1,correct,arm2,2,arm22,arc
240,20,arc,0.766921496484,left,1,correct,arm2,3,arm23,arc
241,21,beaver,1.83336985833,space,1,correct,target,NaN,targetNaN,beaver
242,21,trophy,0.9502130826,left,1,correct,path,1,path1,beaver
243,21,astronaut,0.400246558944,right,1,correct,path,2,path2,beaver
244,21,robot,1.15022829641,right,1,correct,path,3,path3,beaver
245,21,pigeon,2.96696900926,right,1,correct,decision,1,decision1,beaver
246,21,bus,0.633544514189,right,1,correct,arm1,1,arm11,beaver
247,21,deer,0.283383713802,left,1,correct,arm1,2,arm12,beaver
248,21,fist,0.900244747754,left,1,correct,arm1,3,arm13,beaver
249,21,stepladder,1.16691056942,left,1,correct,decision,2,decision2,beaver
250,21,calc,0.333614062984,right,1,correct,arm2,1,arm21,beaver
251,21,tongue,0.20022621355,right,1,correct,arm2,2,arm22,beaver
252,21,beaver,0.233572043944,left,1,correct,arm2,3,arm23,beaver
253,22,beaver,0.383591151563,space,1,correct,target,NaN,targetNaN,beaver
254,22,trophy,0.683590729022,left,1,correct,path,1,path1,beaver
255,22,astronaut,0.533601203468,right,1,correct,path,2,path2,beaver
256,22,robot,0.950201611966,right,1,correct,path,3,path3,beaver
257,22,pigeon,1.06694069481,left,1,correct,decision,1,decision1,beaver
258,22,bus,0.333564557834,right,1,correct,arm1,1,arm11,beaver
259,22,deer,0.183562656166,left,1,correct,arm1,2,arm12,beaver
260,22,fist,0.150210486725,left,1,correct,arm1,3,arm13,beaver
261,22,stepladder,1.35028063902,left,1,correct,decision,2,decision2,beaver
262,22,calc,1.06691503688,right,1,correct,arm2,1,arm21,beaver
263,22,tongue,0.13356866315,right,1,correct,arm2,2,arm22,beaver
264,22,beaver,0.233598305611,left,1,correct,arm2,3,arm23,beaver
265,23,arc,0.300578544149,space,-1,miss,target,NaN,targetNaN,arc
266,23,trophy,0.466921315528,left,-1,miss,path,1,path1,arc
267,23,astronaut,0.366937857354,right,-1,miss,path,2,path2,arc
268,23,robot,0.0835794997402,right,-1,miss,path,3,path3,arc
269,23,pigeon,0.50029733195,right,-1,miss,decision,1,decision1,arc
270,23,bus,1.28358595981,right,-1,miss,arm1,1,arm11,arc
271,23,deer,0.216897619423,left,-1,miss,arm1,2,arm12,arc
272,23,fist,0.166935623623,left,-1,miss,arm1,3,arm13,arc
273,23,stepladder,0.383794907015,right,-1,miss,decision,2,decision2,arc
274,23,calc,0.800260987831,right,-1,miss,arm2,1,arm21,arc
275,23,tongue,0.0836447016336,right,-1,miss,arm2,2,arm22,arc
276,23,beaver,0.333710054168,left,-1,miss,arm2,3,arm23,arc
277,24,arc,0.433599331882,space,-1,miss,target,NaN,targetNaN,arc
278,24,trophy,0.517039976548,left,-1,miss,path,1,path1,arc
279,24,astronaut,0.666981204413,right,-1,miss,path,2,path2,arc
280,24,robot,0.167243218515,right,-1,miss,path,3,path3,arc
281,24,pigeon,0.566960617667,right,-1,miss,decision,1,decision1,arc
282,24,bus,0.583597913152,right,-1,miss,arm1,1,arm11,arc
283,24,deer,0.266909724101,left,-1,miss,arm1,2,arm12,arc
284,24,fist,0.116917179897,left,-1,miss,arm1,3,arm13,arc
285,24,stepladder,0.367111426778,left,-1,miss,decision,2,decision2,arc
286,24,calc,0.23362517124,right,-1,miss,arm2,1,arm21,arc
287,24,tongue,0.150248822989,right,-1,miss,arm2,2,arm22,arc
288,24,beaver,0.18363963021,left,-1,miss,arm2,3,arm23,arc
289,25,arc,0.516937947832,space,-1,miss,target,NaN,targetNaN,arc
290,25,trophy,3.71690214751,left,-1,miss,path,1,path1,arc
291,25,astronaut,0.450241759187,right,-1,miss,path,2,path2,arc
292,25,robot,0.250246770214,right,-1,miss,path,3,path3,arc
293,25,watch,1.21689822315,right,-1,miss,decision,1,decision1,arc
294,25,clover,0.800281212432,left,-1,miss,arm1,1,arm11,arc
295,25,radio,0.450251418864,right,-1,miss,arm1,2,arm12,arc
296,25,wing,0.233562987996,left,-1,miss,arm1,3,arm13,arc
297,25,stepladder,1.63360066013,left,-1,miss,decision,2,decision2,arc
298,25,calc,0.516929495847,right,-1,miss,arm2,1,arm21,arc
299,25,tongue,0.483581854263,right,-1,miss,arm2,2,arm22,arc
300,25,beaver,0.18381742551,left,-1,miss,arm2,3,arm23,arc
301,26,beaver,0.850068733329,space,1,correct,target,NaN,targetNaN,beaver
302,26,trophy,0.800214803312,left,1,correct,path,1,path1,beaver
303,26,astronaut,0.350228718948,right,1,correct,path,2,path2,beaver
304,26,robot,0.233549102675,right,1,correct,path,3,path3,beaver
305,26,pigeon,0.417101193452,right,1,correct,decision,1,decision1,beaver
306,26,bus,0.666903928388,right,1,correct,arm1,1,arm11,beaver
307,26,deer,0.216932635056,left,1,correct,arm1,2,arm12,beaver
308,26,fist,0.28358354466,left,1,correct,arm1,3,arm13,beaver
309,26,stepladder,7.61691235029,right,1,correct,decision,2,decision2,beaver
310,26,calc,0.650217429502,right,1,correct,arm2,1,arm21,beaver
311,26,tongue,0.366926688468,right,1,correct,arm2,2,arm22,beaver
312,26,beaver,0.150211392436,left,1,correct,arm2,3,arm23,beaver
313,27,beaver,0.666942868149,space,1,correct,target,NaN,targetNaN,beaver
314,27,trophy,0.633636581479,left,1,correct,path,1,path1,beaver
315,27,astronaut,0.267297613667,right,1,correct,path,2,path2,beaver
316,27,robot,1.86693725362,right,1,correct,path,3,path3,beaver
317,27,pigeon,0.633619073778,left,1,correct,decision,1,decision1,beaver
318,27,bus,0.283624597592,right,1,correct,arm1,1,arm11,beaver
319,27,deer,0.183594049653,left,1,correct,arm1,2,arm12,beaver
320,27,fist,0.617150517646,left,1,correct,arm1,3,arm13,beaver
321,27,stepladder,0.400312364334,left,1,correct,decision,2,decision2,beaver
322,27,calc,0.383628884098,right,1,correct,arm2,1,arm21,beaver
323,27,tongue,0.0671800693963,right,1,correct,arm2,2,arm22,beaver
324,27,beaver,0.233562987996,left,1,correct,arm2,3,arm23,beaver
325,28,arc,0.816923036007,space,-1,miss,target,NaN,targetNaN,arc
326,28,trophy,0.566951863468,left,-1,miss,path,1,path1,arc
327,28,astronaut,1.56693345006,right,-1,miss,path,2,path2,arc
328,28,robot,0.233634528704,right,-1,miss,path,3,path3,arc
329,28,pigeon,0.866979815764,right,-1,miss,decision,1,decision1,arc
330,28,bus,0.683549978072,right,-1,miss,arm1,1,arm11,arc
331,28,deer,0.250271220924,left,-1,miss,arm1,2,arm12,arc
332,28,fist,0.100253622513,left,-1,miss,arm1,3,arm13,arc
333,28,stepladder,0.250290539814,right,-1,miss,decision,2,decision2,arc
334,28,calc,0.383663899731,right,-1,miss,arm2,1,arm21,arc
335,28,tongue,0.0669044717215,right,-1,miss,arm2,2,arm22,arc
336,28,beaver,0.233588947915,left,-1,miss,arm2,3,arm23,arc
337,29,beaver,0.600295580924,space,-1,miss,target,NaN,targetNaN,beaver
338,29,trophy,8.90010106261,left,-1,miss,path,1,path1,beaver
339,29,astronaut,0.36690404918,right,-1,miss,path,2,path2,beaver
340,29,robot,0.250221715774,right,-1,miss,path,3,path3,beaver
341,29,watch,2.71697610314,left,-1,miss,decision,1,decision1,beaver
342,29,clover,2.38354315609,left,-1,miss,arm1,1,arm11,beaver
343,29,radio,1.36684397911,right,-1,miss,arm1,2,arm12,beaver
344,29,wing,0.450204026885,left,-1,miss,arm1,3,arm13,beaver
345,29,holly,2.56696333434,right,-1,miss,decision,2,decision2,beaver
346,29,match,0.583614515606,right,-1,miss,arm2,1,arm21,beaver
347,29,baby,0.333578141406,left,-1,miss,arm2,2,arm22,beaver
348,29,arc,1.00023454498,left,-1,miss,arm2,3,arm23,beaver
349,30,arc,5.03354747244,space,1,correct,target,NaN,targetNaN,arc
350,30,trophy,1.51687636855,left,1,correct,path,1,path1,arc
351,30,astronaut,0.250274239341,right,1,correct,path,2,path2,arc
352,30,robot,0.133396603167,right,1,correct,path,3,path3,arc
353,30,watch,0.350433077896,right,1,correct,decision,1,decision1,arc
354,30,clover,0.650235239416,left,1,correct,arm1,1,arm11,arc
355,30,radio,0.216952557908,right,1,correct,arm1,2,arm12,arc
356,30,wing,0.166909663705,left,1,correct,arm1,3,arm13,arc
357,30,holly,0.566991105443,right,1,correct,decision,2,decision2,arc
358,30,match,0.633596434258,right,1,correct,arm2,1,arm21,arc
359,30,baby,0.333621005528,left,1,correct,arm2,2,arm22,arc
360,30,arc,0.666930793785,left,1,correct,arm2,3,arm23,arc
361,31,arc,0.366979815997,space,0,wrong,target,NaN,targetNaN,arc
362,31,trophy,0.800248913467,left,0,wrong,path,1,path1,arc
363,31,astronaut,0.767008432187,right,0,wrong,path,2,path2,arc
364,31,robot,2.10022494569,right,0,wrong,path,3,path3,arc
365,31,pigeon,0.000311217270792,left,0,wrong,decision,1,decision1,arc
366,31,bus,1.03364286013,right,0,wrong,arm1,1,arm11,arc
367,31,deer,0.200313451001,left,0,wrong,arm1,2,arm12,arc
368,31,fist,1.26691938355,left,0,wrong,arm1,3,arm13,arc
369,31,holly,14.116734555,left,0,wrong,decision,2,decision2,arc
370,31,match,0.466894147918,right,0,wrong,arm2,1,arm21,arc
371,31,baby,0.200252777198,left,0,wrong,arm2,2,arm22,arc
372,31,arc,0.950233005453,left,0,wrong,arm2,3,arm23,arc
373,32,arc,4.51687636855,space,1,correct,target,NaN,targetNaN,arc
374,32,trophy,0.683564769104,left,1,correct,path,1,path1,arc
375,32,astronaut,0.333576330217,right,1,correct,path,2,path2,arc
376,32,robot,0.216916334815,right,1,correct,path,3,path3,arc
377,32,watch,0.550304606557,left,1,correct,decision,1,decision1,arc
378,32,clover,0.683581069577,left,1,correct,arm1,1,arm11,arc
379,32,radio,0.350249547279,right,1,correct,arm1,2,arm12,arc
380,32,wing,0.217023494886,left,1,correct,arm1,3,arm13,arc
381,32,holly,0.616952799261,left,1,correct,decision,2,decision2,arc
382,32,match,0.833608629182,right,1,correct,arm2,1,arm21,arc
383,32,baby,0.433601747034,left,1,correct,arm2,2,arm22,arc
384,32,arc,0.10023732204,left,1,correct,arm2,3,arm23,arc
385,33,arc,0.300296909176,space,1,correct,target,NaN,targetNaN,arc
386,33,trophy,1.0002384691,left,1,correct,path,1,path1,arc
387,33,astronaut,0.350251962198,right,1,correct,path,2,path2,arc
388,33,robot,0.266901875613,right,1,correct,path,3,path3,arc
389,33,watch,2.10047307448,left,1,correct,decision,1,decision1,arc
390,33,clover,0.783579017036,left,1,correct,arm1,1,arm11,arc
391,33,radio,0.516924364259,right,1,correct,arm1,2,arm12,arc
392,33,wing,0.166897287359,left,1,correct,arm1,3,arm13,arc
393,33,holly,0.816907641012,left,1,correct,decision,2,decision2,arc
394,33,match,1.01690232847,right,1,correct,arm2,1,arm21,arc
395,33,baby,0.633619979257,left,1,correct,arm2,2,arm22,arc
396,33,arc,0.533637728542,left,1,correct,arm2,3,arm23,arc
397,34,arc,0.334045118187,space,1,correct,target,NaN,targetNaN,arc
398,34,trophy,3.83355459641,left,1,correct,path,1,path1,arc
399,34,astronaut,0.65022407053,right,1,correct,path,2,path2,arc
400,34,robot,0.350243208231,right,1,correct,path,3,path3,arc
401,34,watch,1.15028776275,right,1,correct,decision,1,decision1,arc
402,34,clover,0.666954338783,left,1,correct,arm1,1,arm11,arc
403,34,radio,0.400291837985,right,1,correct,arm1,2,arm12,arc
404,34,wing,0.716903052758,left,1,correct,arm1,3,arm13,arc
405,34,holly,3.0836365514,right,1,correct,decision,2,decision2,arc
406,34,match,0.68357714545,right,1,correct,arm2,1,arm21,arc
407,34,baby,0.233681618934,left,1,correct,arm2,2,arm22,arc
408,34,arc,0.0835650106892,left,1,correct,arm2,3,arm23,arc
409,35,arc,0.566966051003,space,1,correct,target,NaN,targetNaN,arc
410,35,trophy,1.0669222814,left,1,correct,path,1,path1,arc
411,35,astronaut,0.416729302378,right,1,correct,path,2,path2,arc
412,35,robot,0.166917813942,right,1,correct,path,3,path3,arc
413,35,watch,1.73409697786,right,1,correct,decision,1,decision1,arc
414,35,clover,0.38362616743,left,1,correct,arm1,1,arm11,arc
415,35,radio,0.250273334095,right,1,correct,arm1,2,arm12,arc
416,35,wing,0.250297482591,left,1,correct,arm1,3,arm13,arc
417,35,holly,0.38366691838,left,1,correct,decision,2,decision2,arc
418,35,match,0.266950776801,right,1,correct,arm2,1,arm21,arc
419,35,baby,0.316907339264,left,1,correct,arm2,2,arm22,arc
420,35,arc,0.083559275372,left,1,correct,arm2,3,arm23,arc
421,36,beaver,0.250263372669,space,1,correct,target,NaN,targetNaN,beaver
422,36,trophy,0.933556467993,left,1,correct,path,1,path1,beaver
423,36,astronaut,0.583597611636,right,1,correct,path,2,path2,beaver
424,36,robot,1.48351876577,right,1,correct,path,3,path3,beaver
425,36,pigeon,1.60031761671,left,1,correct,decision,1,decision1,beaver
426,36,bus,0.433597218944,right,1,correct,arm1,1,arm11,beaver
427,36,deer,0.61692019878,left,1,correct,arm1,2,arm12,beaver
428,36,fist,0.683557222597,left,1,correct,arm1,3,arm13,beaver
429,36,stepladder,0.366952346638,right,1,correct,decision,2,decision2,beaver
430,36,calc,0.450273756403,right,1,correct,arm2,1,arm21,beaver
431,36,tongue,0.0668978309259,right,1,correct,arm2,2,arm22,beaver
432,36,beaver,0.233597098151,left,1,correct,arm2,3,arm23,beaver
433,37,beaver,0.333605610766,space,1,correct,target,NaN,targetNaN,beaver
434,37,trophy,1.20027088886,left,1,correct,path,1,path1,beaver
435,37,astronaut,0.300319548696,right,1,correct,path,2,path2,beaver
436,37,robot,0.0669841624331,right,1,correct,path,3,path3,beaver
437,37,pigeon,0.400344965281,left,1,correct,decision,1,decision1,beaver
438,37,bus,1.55025661085,right,1,correct,arm1,1,arm11,beaver
439,37,deer,0.417002787348,left,1,correct,arm1,2,arm12,beaver
440,37,fist,0.116900577676,left,1,correct,arm1,3,arm13,beaver
441,37,stepladder,0.366767004831,left,1,correct,decision,2,decision2,beaver
442,37,calc,0.400341946632,right,1,correct,arm2,1,arm21,beaver
443,37,tongue,0.0668969252147,right,1,correct,arm2,2,arm22,beaver
444,37,beaver,0.266957417829,left,1,correct,arm2,3,arm23,beaver
445,38,beaver,0.533595166402,space,1,correct,target,NaN,targetNaN,beaver
446,38,trophy,2.11691838736,left,1,correct,path,1,path1,beaver
447,38,astronaut,0.816880775848,right,1,correct,path,2,path2,beaver
448,38,robot,0.266906101722,right,1,correct,path,3,path3,beaver
449,38,pigeon,1.30023321672,left,1,correct,decision,1,decision1,beaver
450,38,bus,1.25027605076,right,1,correct,arm1,1,arm11,beaver
451,38,deer,0.450265908148,left,1,correct,arm1,2,arm12,beaver
452,38,fist,0.25017160736,left,1,correct,arm1,3,arm13,beaver
453,38,stepladder,0.800298116403,right,1,correct,decision,2,decision2,beaver
454,38,calc,0.450297301635,right,1,correct,arm2,1,arm21,beaver
455,38,tongue,0.200286887353,right,1,correct,arm2,2,arm22,beaver
456,38,beaver,0.167203675024,left,1,correct,arm2,3,arm23,beaver
457,39,beaver,0.583656775998,space,1,correct,target,NaN,targetNaN,beaver
458,39,trophy,0.433637064416,left,1,correct,path,1,path1,beaver
459,39,astronaut,0.300257365685,right,1,correct,path,2,path2,beaver
460,39,robot,0.166915399022,right,1,correct,path,3,path3,beaver
461,39,pigeon,2.98349159816,left,1,correct,decision,1,decision1,beaver
462,39,bus,0.600360782584,right,1,correct,arm1,1,arm11,beaver
463,39,deer,0.283577507595,left,1,correct,arm1,2,arm12,beaver
464,39,fist,0.11689333315,left,1,correct,arm1,3,arm13,beaver
465,39,stepladder,0.38364126021,left,1,correct,decision,2,decision2,beaver
466,39,calc,0.333744768053,right,1,correct,arm2,1,arm21,beaver
467,39,tongue,0.100258754101,right,1,correct,arm2,2,arm22,beaver
468,39,beaver,0.133616658626,left,1,correct,arm2,3,arm23,beaver
469,40,beaver,0.416933963308,space,1,correct,target,NaN,targetNaN,beaver
470,40,trophy,0.783464913955,left,1,correct,path,1,path1,beaver
471,40,astronaut,0.600246679736,right,1,correct,path,2,path2,beaver
472,40,robot,0.3169417514,right,1,correct,path,3,path3,beaver
473,40,pigeon,0.966978065204,left,1,correct,decision,1,decision1,beaver
474,40,bus,1.18357261736,right,1,correct,arm1,1,arm11,beaver
475,40,deer,0.650257274974,left,1,correct,arm1,2,arm12,beaver
476,40,fist,0.233591966797,left,1,correct,arm1,3,arm13,beaver
477,40,stepladder,2.11694102711,right,1,correct,decision,2,decision2,beaver
478,40,calc,0.700260021957,right,1,correct,arm2,1,arm21,beaver
479,40,tongue,0.200232552597,right,1,correct,arm2,2,arm22,beaver
480,40,beaver,0.0835541435517,left,1,correct,arm2,3,arm23,beaver
481,41,arc,0.300259780372,space,1,correct,target,NaN,targetNaN,arc
482,41,trophy,0.400285498705,left,1,correct,path,1,path1,arc
483,41,astronaut,0.283575696405,right,1,correct,path,2,path2,arc
484,41,robot,0.116897860775,right,1,correct,path,3,path3,arc
485,41,watch,0.40030149743,right,1,correct,decision,1,decision1,arc
486,41,clover,0.466961462749,left,1,correct,arm1,1,arm11,arc
487,41,radio,0.116914764978,right,1,correct,arm1,2,arm12,arc
488,41,wing,0.100196570856,left,1,correct,arm1,3,arm13,arc
489,41,holly,0.416962941876,right,1,correct,decision,2,decision2,arc
490,41,match,0.98357068561,right,1,correct,arm2,1,arm21,arc
491,41,baby,0.266908214893,left,1,correct,arm2,2,arm22,arc
492,41,arc,0.100223134737,left,1,correct,arm2,3,arm23,arc
493,42,arc,0.30026521394,space,1,correct,target,NaN,targetNaN,arc
494,42,trophy,0.666907550767,left,1,correct,path,1,path1,arc
495,42,astronaut,0.216924484819,right,1,correct,path,2,path2,arc
496,42,robot,0.150261802832,right,1,correct,path,3,path3,arc
497,42,watch,0.650283536874,right,1,correct,decision,1,decision1,arc
498,42,clover,0.333387064515,left,1,correct,arm1,1,arm11,arc
499,42,radio,0.283569357358,right,1,correct,arm1,2,arm12,arc
500,42,wing,0.166909663705,left,1,correct,arm1,3,arm13,arc
501,42,holly,1.75031287735,right,1,correct,decision,2,decision2,arc
502,42,match,0.583560482832,right,1,correct,arm2,1,arm21,arc
503,42,baby,0.250241940375,left,1,correct,arm2,2,arm22,arc
504,42,arc,0.100186609663,left,1,correct,arm2,3,arm23,arc
505,43,arc,0.200245230692,space,1,correct,target,NaN,targetNaN,arc
506,43,trophy,0.800060553011,left,1,correct,path,1,path1,arc
507,43,astronaut,1.00025688251,right,1,correct,path,2,path2,arc
508,43,robot,0.616913557751,right,1,correct,path,3,path3,arc
509,43,watch,0.616928348783,left,1,correct,decision,1,decision1,arc
510,43,clover,0.833440493559,left,1,correct,arm1,1,arm11,arc
511,43,radio,0.400248671882,right,1,correct,arm1,2,arm12,arc
512,43,wing,0.350232643308,left,1,correct,arm1,3,arm13,arc
513,43,holly,0.783617353067,left,1,correct,decision,2,decision2,arc
514,43,match,2.05024634767,right,1,correct,arm2,1,arm21,arc
515,43,baby,0.233565704897,left,1,correct,arm2,2,arm22,arc
516,43,arc,0.116966081318,left,1,correct,arm2,3,arm23,arc
517,44,arc,0.266939004418,space,1,correct,target,NaN,targetNaN,arc
518,44,trophy,0.750254618702,left,1,correct,path,1,path1,arc
519,44,astronaut,0.283575092675,right,1,correct,path,2,path2,arc
520,44,robot,0.117062374484,right,1,correct,path,3,path3,arc
521,44,watch,0.300400446868,right,1,correct,decision,1,decision1,arc
522,44,clover,1.06692680926,left,1,correct,arm1,1,arm11,arc
523,44,radio,0.184080043575,right,1,correct,arm1,2,arm12,arc
524,44,wing,0.300271552987,left,1,correct,arm1,3,arm13,arc
525,44,holly,0.650376207661,right,1,correct,decision,2,decision2,arc
526,44,match,0.666958866874,right,1,correct,arm2,1,arm21,arc
527,44,baby,0.233561780769,left,1,correct,arm2,2,arm22,arc
528,44,arc,0.0669397891033,left,1,correct,arm2,3,arm23,arc
529,45,arc,0.233600418549,space,-1,miss,target,NaN,targetNaN,arc
530,45,trophy,2.08356682165,left,-1,miss,path,1,path1,arc
531,45,astronaut,0.483580043307,right,-1,miss,path,2,path2,arc
532,45,robot,0.133556890767,right,-1,miss,path,3,path3,arc
533,45,watch,0.600282600848,left,-1,miss,decision,1,decision1,arc
534,45,clover,1.45039057615,left,-1,miss,arm1,1,arm11,arc
535,45,radio,0.450262889499,right,-1,miss,arm1,2,arm12,arc
536,45,wing,0.166736999992,left,-1,miss,arm1,3,arm13,arc
537,45,stepladder,0.717008401873,right,-1,miss,decision,2,decision2,arc
538,45,calc,1.43357367394,right,-1,miss,arm2,1,arm21,arc
539,45,tongue,1.10026116902,right,-1,miss,arm2,2,arm22,arc
540,45,beaver,0.850349463057,left,-1,miss,arm2,3,arm23,arc
541,46,beaver,0.700289906003,space,1,correct,target,NaN,targetNaN,beaver
542,46,trophy,1.58357859426,left,1,correct,path,1,path1,beaver
543,46,astronaut,1.00022247061,right,1,correct,path,2,path2,beaver
544,46,robot,1.11692653759,right,1,correct,path,3,path3,beaver
545,46,pigeon,2.65036624623,left,1,correct,decision,1,decision1,beaver
546,46,bus,1.11691265204,right,1,correct,arm1,1,arm11,beaver
547,46,deer,0.233648112509,left,1,correct,arm1,2,arm12,beaver
548,46,fist,0.150315231876,left,1,correct,arm1,3,arm13,beaver
549,46,stepladder,0.31700544362,right,1,correct,decision,2,decision2,beaver
550,46,calc,2.83353225887,right,1,correct,arm2,1,arm21,beaver
551,46,tongue,0.600225247676,right,1,correct,arm2,2,arm22,beaver
552,46,beaver,0.166911776876,left,1,correct,arm2,3,arm23,beaver
553,47,beaver,0.350249547279,space,1,correct,target,NaN,targetNaN,beaver
554,47,trophy,0.383560663788,left,1,correct,path,1,path1,beaver
555,47,astronaut,0.766992131714,right,1,correct,path,2,path2,beaver
556,47,robot,0.266926024575,right,1,correct,path,3,path3,beaver
557,47,pigeon,0.300565262325,left,1,correct,decision,1,decision1,beaver
558,47,bus,0.300381429726,right,1,correct,arm1,1,arm11,beaver
559,47,deer,0.200266361004,left,1,correct,arm1,2,arm12,beaver
560,47,fist,0.133569870377,left,1,correct,arm1,3,arm13,beaver
561,47,stepladder,0.266993037425,left,1,correct,decision,2,decision2,beaver
562,47,calc,0.416960527189,right,1,correct,arm2,1,arm21,beaver
563,47,tongue,0.116909633623,right,1,correct,arm2,2,arm22,beaver
564,47,beaver,1.06692831847,left,1,correct,arm2,3,arm23,beaver
565,48,beaver,0.533614485292,space,1,correct,target,NaN,targetNaN,beaver
566,48,trophy,1.01691530854,left,1,correct,path,1,path1,beaver
567,48,astronaut,0.250242242357,right,1,correct,path,2,path2,beaver
568,48,robot,0.13358737831,right,1,correct,path,3,path3,beaver
569,48,pigeon,0.733575364342,right,1,correct,decision,1,decision1,beaver
570,48,bus,0.73353944323,right,1,correct,arm1,1,arm11,beaver
571,48,deer,0.366917934734,left,1,correct,arm1,2,arm12,beaver
572,48,fist,0.216896713944,left,1,correct,arm1,3,arm13,beaver
573,48,stepladder,1.75028812513,right,1,correct,decision,2,decision2,beaver
574,48,calc,0.733553328551,right,1,correct,arm2,1,arm21,beaver
575,48,tongue,1.05024000863,right,1,correct,arm2,2,arm22,beaver
576,48,beaver,0.700248249341,left,1,correct,arm2,3,arm23,beaver
577,49,beaver,0.516992886318,space,1,correct,target,NaN,targetNaN,beaver
578,49,trophy,0.76688617887,left,1,correct,path,1,path1,beaver
579,49,astronaut,0.316925450927,right,1,correct,path,2,path2,beaver
580,49,robot,1.15028504608,right,1,correct,path,3,path3,beaver
581,49,pigeon,1.31699186005,left,1,correct,decision,1,decision1,beaver
582,49,bus,0.400307836477,right,1,correct,arm1,1,arm11,beaver
583,49,deer,0.716844492126,left,1,correct,arm1,2,arm12,beaver
584,49,fist,0.250260957517,left,1,correct,arm1,3,arm13,beaver
585,49,stepladder,0.767024128931,left,1,correct,decision,2,decision2,beaver
586,49,calc,0.583587046247,right,1,correct,arm2,1,arm21,beaver
587,49,tongue,0.93362981989,right,1,correct,arm2,2,arm22,beaver
588,49,beaver,0.400255010929,left,1,correct,arm2,3,arm23,beaver
589,50,beaver,0.56694612815,space,1,correct,target,NaN,targetNaN,beaver
590,50,trophy,0.833376197377,left,1,correct,path,1,path1,beaver
591,50,astronaut,0.383592057275,right,1,correct,path,2,path2,beaver
592,50,robot,1.9502284776,right,1,correct,path,3,path3,beaver
593,50,pigeon,1.16697003553,right,1,correct,decision,1,decision1,beaver
594,50,bus,1.66695403703,right,1,correct,arm1,1,arm11,beaver
595,50,deer,2.30025827093,left,1,correct,arm1,2,arm12,beaver
596,50,fist,0.516900215298,left,1,correct,arm1,3,arm13,beaver
597,50,stepladder,0.716988479253,left,1,correct,decision,2,decision2,beaver
598,50,calc,0.533596977592,right,1,correct,arm2,1,arm21,beaver
599,50,tongue,0.300276382593,right,1,correct,arm2,2,arm22,beaver
600,50,beaver,0.133597339736,left,1,correct,arm2,3,arm23,beaver
