pic_index,trial_num,pic_name,rt,resp,feedback_code,feedback,segment,segment_index,pic_type,trial_target
1,1,lion,2.08359972457,space,1,correct,target,NaN,targetNaN,lion
2,1,coffeepot,2.70022742101,left,1,correct,path,1,path1,lion
3,1,mosquito,4.06685979641,left,1,correct,path,2,path2,lion
4,1,canoe,0.114241797943,right,1,correct,path,3,path3,lion
5,1,goose,3.76688195276,left,1,correct,decision,1,decision1,lion
6,1,sailor,5.61684503546,left,1,correct,arm1,1,arm11,lion
7,1,cooker,10.0167824903,left,1,correct,arm1,2,arm12,lion
8,1,tooth,1.91691675736,left,1,correct,arm1,3,arm13,lion
9,1,crutches,9.63347357744,left,1,correct,decision,2,decision2,lion
10,1,stapler,1.86691370863,right,1,correct,arm2,1,arm21,lion
11,1,rose,0.733565403149,right,1,correct,arm2,2,arm22,lion
12,1,lion,2.13356383331,left,1,correct,arm2,3,arm23,lion
13,2,lion,3.06671611127,space,1,correct,target,NaN,targetNaN,lion
14,2,coffeepot,2.13369272719,left,1,correct,path,1,path1,lion
15,2,mosquito,0.61693831021,left,1,correct,path,2,path2,lion
16,2,canoe,0.73357808101,right,1,correct,path,3,path3,lion
17,2,goose,1.26700269687,right,1,correct,decision,1,decision1,lion
18,2,sailor,2.78359109117,left,1,correct,arm1,1,arm11,lion
19,2,cooker,1.43358122045,left,1,correct,arm1,2,arm12,lion
20,2,tooth,0.983828171855,left,1,correct,arm1,3,arm13,lion
21,2,crutches,4.51691711973,left,1,correct,decision,2,decision2,lion
22,2,stapler,2.73357294942,right,1,correct,arm2,1,arm21,lion
23,2,rose,0.333579046885,right,1,correct,arm2,2,arm22,lion
24,2,lion,1.08369209361,left,1,correct,arm2,3,arm23,lion
25,3,lion,2.08366975584,space,1,correct,target,NaN,targetNaN,lion
26,3,coffeepot,1.31695382576,left,1,correct,path,1,path1,lion
27,3,mosquito,0.550237291958,left,1,correct,path,2,path2,lion
28,3,canoe,2.21690848633,right,1,correct,path,3,path3,lion
29,3,goose,0.766903083073,left,1,correct,decision,1,decision1,lion
30,3,sailor,2.28359078942,left,1,correct,arm1,1,arm11,lion
31,3,cooker,0.816913074814,left,1,correct,arm1,2,arm12,lion
32,3,tooth,0.333583574975,left,1,correct,arm1,3,arm13,lion
33,3,crutches,0.883593264502,right,1,correct,decision,2,decision2,lion
34,3,stapler,2.90021244879,right,1,correct,arm2,1,arm21,lion
35,3,rose,0.583582518389,right,1,correct,arm2,2,arm22,lion
36,3,lion,1.11692351894,left,1,correct,arm2,3,arm23,lion
37,4,bolt,1.80035214941,space,-1,miss,target,NaN,targetNaN,bolt
38,4,coffeepot,1.88371340488,left,-1,miss,path,1,path1,bolt
39,4,mosquito,0.433588163229,left,-1,miss,path,2,path2,bolt
40,4,canoe,0.600272941403,right,-1,miss,path,3,path3,bolt
41,4,domino,1.31697525783,right,-1,miss,decision,1,decision1,bolt
42,4,ambulance,3.18357442855,right,-1,miss,arm1,1,arm11,bolt
43,4,trunk,0.65024520061,left,-1,miss,arm1,2,arm12,bolt
44,4,peach,0.366921255132,left,-1,miss,arm1,3,arm13,bolt
45,4,crutches,0.85049707233,right,-1,miss,decision,2,decision2,bolt
46,4,stapler,3.45022062934,right,-1,miss,arm2,1,arm21,bolt
47,4,rose,0.483611134812,right,-1,miss,arm2,2,arm22,bolt
48,4,lion,0.317223990103,left,-1,miss,arm2,3,arm23,bolt
49,5,lion,1.90030542156,space,1,correct,target,NaN,targetNaN,lion
50,5,coffeepot,2.06711154757,left,1,correct,path,1,path1,lion
51,5,mosquito,0.667155981297,left,1,correct,path,2,path2,lion
52,5,canoe,0.483585476642,right,1,correct,path,3,path3,lion
53,5,goose,1.40024384228,right,1,correct,decision,1,decision1,lion
54,5,sailor,1.38342211023,left,1,correct,arm1,1,arm11,lion
55,5,cooker,0.700222893152,left,1,correct,arm1,2,arm12,lion
56,5,tooth,0.233597400133,left,1,correct,arm1,3,arm13,lion
57,5,crutches,1.11693981942,left,1,correct,decision,2,decision2,lion
58,5,stapler,2.88357545505,right,1,correct,arm2,1,arm21,lion
59,5,rose,0.300227783155,right,1,correct,arm2,2,arm22,lion
60,5,lion,0.250256127911,left,1,correct,arm2,3,arm23,lion
61,6,lion,1.43366604322,space,1,correct,target,NaN,targetNaN,lion
62,6,coffeepot,1.10029105307,left,1,correct,path,1,path1,lion
63,6,mosquito,0.383574549342,left,1,correct,path,2,path2,lion
64,6,canoe,0.28359229886,right,1,correct,path,3,path3,lion
65,6,goose,0.866950233467,left,1,correct,decision,1,decision1,lion
66,6,sailor,1.48360268283,left,1,correct,arm1,1,arm11,lion
67,6,cooker,0.400291837985,left,1,correct,arm1,2,arm12,lion
68,6,tooth,0.0669422042556,left,1,correct,arm1,3,arm13,lion
69,6,crutches,0.683409009362,right,1,correct,decision,2,decision2,lion
70,6,stapler,0.900295158383,right,1,correct,arm2,1,arm21,lion
71,6,rose,0.366938461084,right,1,correct,arm2,2,arm22,lion
72,6,lion,0.300296003465,left,1,correct,arm2,3,arm23,lion
73,7,lion,2.03364255838,space,1,correct,target,NaN,targetNaN,lion
74,7,coffeepot,3.41689743823,left,1,correct,path,1,path1,lion
75,7,mosquito,0.666918417672,left,1,correct,path,2,path2,lion
76,7,canoe,0.114357410232,right,1,correct,path,3,path3,lion
77,7,goose,1.23365113116,left,1,correct,decision,1,decision1,lion
78,7,sailor,3.23351106816,left,1,correct,arm1,1,arm11,lion
79,7,cooker,0.516910176724,left,1,correct,arm1,2,arm12,lion
80,7,tooth,1.3168919445,left,1,correct,arm1,3,arm13,lion
81,7,crutches,0.667347963899,right,1,correct,decision,2,decision2,lion
82,7,stapler,1.10028531752,right,1,correct,arm2,1,arm21,lion
83,7,rose,0.317024159012,right,1,correct,arm2,2,arm22,lion
84,7,lion,0.250278767198,left,1,correct,arm2,3,arm23,lion
85,8,bolt,0.483933822718,space,-1,miss,target,NaN,targetNaN,bolt
86,8,coffeepot,1.75023560156,left,-1,miss,path,1,path1,bolt
87,8,mosquito,0.333569085691,left,-1,miss,path,2,path2,bolt
88,8,canoe,0.114244212862,right,-1,miss,path,3,path3,bolt
89,8,goose,0.633418336976,right,-1,miss,decision,1,decision1,bolt
90,8,sailor,2.61690963362,left,-1,miss,arm1,1,arm11,bolt
91,8,cooker,0.483845076058,left,-1,miss,arm1,2,arm12,bolt
92,8,tooth,0.600281091873,left,-1,miss,arm1,3,arm13,bolt
93,8,crutches,1.28376949043,left,-1,miss,decision,2,decision2,bolt
94,8,stapler,0.816951108864,right,-1,miss,arm2,1,arm21,bolt
95,8,rose,0.350670037791,right,-1,miss,arm2,2,arm22,bolt
96,8,lion,0.250250090612,left,-1,miss,arm2,3,arm23,bolt
97,9,lion,1.06695427839,space,0,wrong,target,NaN,targetNaN,lion
98,9,coffeepot,1.21694440767,left,0,wrong,path,1,path1,lion
99,9,mosquito,0.333586895373,left,0,wrong,path,2,path2,lion
100,9,canoe,0.683629668783,right,0,wrong,path,3,path3,lion
101,9,domino,1.68408366595,right,0,wrong,decision,1,decision1,lion
102,9,ambulance,2.18370754877,right,0,wrong,arm1,1,arm11,lion
103,9,trunk,0.400249577593,left,0,wrong,arm1,2,arm12,lion
104,9,peach,0.116927443072,left,0,wrong,arm1,3,arm13,lion
105,9,crutches,0.733838887885,left,0,wrong,decision,2,decision2,lion
106,9,stapler,0.700260625686,right,0,wrong,arm2,1,arm21,lion
107,9,rose,0.250690201996,right,0,wrong,arm2,2,arm22,lion
108,9,lion,0.30028966465,left,0,wrong,arm2,3,arm23,lion
109,10,lion,0.850217550294,space,-1,miss,target,NaN,targetNaN,lion
110,10,coffeepot,2.13355990918,left,-1,miss,path,1,path1,lion
111,10,mosquito,0.200286283623,left,-1,miss,path,2,path2,lion
112,10,canoe,1.18356567458,right,-1,miss,path,3,path3,lion
113,10,domino,1.21700719465,right,-1,miss,decision,1,decision1,lion
114,10,ambulance,1.5668911899,right,-1,miss,arm1,1,arm11,lion
115,10,trunk,0.65042118472,left,-1,miss,arm1,2,arm12,lion
116,10,peach,0.433737885673,left,-1,miss,arm1,3,arm13,lion
117,10,garlic,1.783424163,right,-1,miss,decision,2,decision2,lion
118,10,mug,3.43356612744,right,-1,miss,arm2,1,arm21,lion
119,10,branch,1.05026325188,left,-1,miss,arm2,2,arm22,lion
120,10,bolt,2.48358608037,right,-1,miss,arm2,3,arm23,lion
121,11,bolt,1.71695014299,space,-1,miss,target,NaN,targetNaN,bolt
122,11,coffeepot,0.583615421318,left,-1,miss,path,1,path1,bolt
123,11,mosquito,0.400219693314,left,-1,miss,path,2,path2,bolt
124,11,canoe,0.866917934502,right,-1,miss,path,3,path3,bolt
125,11,domino,0.783662028145,left,-1,miss,decision,1,decision1,bolt
126,11,ambulance,2.05048240186,right,-1,miss,arm1,1,arm11,bolt
127,11,trunk,0.400243842043,left,-1,miss,arm1,2,arm12,bolt
128,11,peach,0.166912682354,left,-1,miss,arm1,3,arm13,bolt
129,11,crutches,0.866760364035,left,-1,miss,decision,2,decision2,bolt
130,11,stapler,0.716967349174,right,-1,miss,arm2,1,arm21,bolt
131,11,rose,0.283600448864,right,-1,miss,arm2,2,arm22,bolt
132,11,lion,0.300279703224,left,-1,miss,arm2,3,arm23,bolt
133,12,lion,0.633648656076,space,1,correct,target,NaN,targetNaN,lion
134,12,coffeepot,1.21692237188,left,1,correct,path,1,path1,lion
135,12,mosquito,0.3835993018,left,1,correct,path,2,path2,lion
136,12,canoe,0.233635132434,right,1,correct,path,3,path3,lion
137,12,goose,0.633730761707,right,1,correct,decision,1,decision1,lion
138,12,sailor,0.683601897908,left,1,correct,arm1,1,arm11,lion
139,12,cooker,0.316923941718,left,1,correct,arm1,2,arm12,lion
140,12,tooth,0.283643011237,left,1,correct,arm1,3,arm13,lion
141,12,crutches,2.31711109448,right,1,correct,decision,2,decision2,lion
142,12,stapler,1.45022515696,right,1,correct,arm2,1,arm21,lion
143,12,rose,0.500344723696,right,1,correct,arm2,2,arm22,lion
144,12,lion,0.250220508547,left,1,correct,arm2,3,arm23,lion
145,13,bolt,0.500296124257,space,-1,miss,target,NaN,targetNaN,bolt
146,13,coffeepot,0.683574126568,left,-1,miss,path,1,path1,bolt
147,13,mosquito,0.350194005063,left,-1,miss,path,2,path2,bolt
148,13,canoe,0.383681407897,right,-1,miss,path,3,path3,bolt
149,13,domino,1.68358771061,left,-1,miss,decision,1,decision1,bolt
150,13,ambulance,1.03354837815,right,-1,miss,arm1,1,arm11,bolt
151,13,trunk,0.816902207676,left,-1,miss,arm1,2,arm12,bolt
152,13,peach,0.233591061085,left,-1,miss,arm1,3,arm13,bolt
153,13,crutches,0.783722098451,right,-1,miss,decision,2,decision2,bolt
154,13,stapler,0.850266451482,right,-1,miss,arm2,1,arm21,bolt
155,13,rose,0.333612855291,right,-1,miss,arm2,2,arm22,bolt
156,13,lion,0.250274239574,left,-1,miss,arm2,3,arm23,bolt
157,14,bolt,2.23356993101,space,-1,miss,target,NaN,targetNaN,bolt
158,14,coffeepot,1.40037545306,left,-1,miss,path,1,path1,bolt
159,14,mosquito,0.216892185854,left,-1,miss,path,2,path2,bolt
160,14,canoe,0.250351515366,right,-1,miss,path,3,path3,bolt
161,14,goose,4.11695611989,right,-1,miss,decision,1,decision1,bolt
162,14,sailor,0.366927292431,left,-1,miss,arm1,1,arm11,bolt
163,14,cooker,0.233630604576,left,-1,miss,arm1,2,arm12,bolt
164,14,tooth,0.600221625296,left,-1,miss,arm1,3,arm13,bolt
165,14,crutches,0.833360198885,right,-1,miss,decision,2,decision2,bolt
166,14,stapler,0.783600147115,right,-1,miss,arm2,1,arm21,bolt
167,14,rose,0.216896713944,right,-1,miss,arm2,2,arm22,bolt
168,14,lion,0.233595286962,left,-1,miss,arm2,3,arm23,bolt
169,15,bolt,0.367013020441,space,1,correct,target,NaN,targetNaN,bolt
170,15,coffeepot,0.316928771557,left,1,correct,path,1,path1,bolt
171,15,mosquito,0.333566369023,left,1,correct,path,2,path2,bolt
172,15,canoe,0.216917542275,right,1,correct,path,3,path3,bolt
173,15,domino,2.40042465623,right,1,correct,decision,1,decision1,bolt
174,15,ambulance,0.366936951876,right,1,correct,arm1,1,arm11,bolt
175,15,trunk,0.750212358311,left,1,correct,arm1,2,arm12,bolt
176,15,peach,0.0335767529905,left,1,correct,arm1,3,arm13,bolt
177,15,garlic,0.766967077507,right,1,correct,decision,2,decision2,bolt
178,15,mug,5.16690332466,right,1,correct,arm2,1,arm21,bolt
179,15,branch,0.98379466543,left,1,correct,arm2,2,arm22,bolt
180,15,bolt,0.616883371491,right,1,correct,arm2,3,arm23,bolt
181,16,lion,0.383604735136,space,1,correct,target,NaN,targetNaN,lion
182,16,coffeepot,0.833630966954,left,1,correct,path,1,path1,lion
183,16,mosquito,0.166909361957,left,1,correct,path,2,path2,lion
184,16,canoe,0.266922703944,right,1,correct,path,3,path3,lion
185,16,goose,1.51694277767,left,1,correct,decision,1,decision1,lion
186,16,sailor,0.683588314336,left,1,correct,arm1,1,arm11,lion
187,16,cooker,0.200223496882,left,1,correct,arm1,2,arm12,lion
188,16,tooth,0.317104755435,left,1,correct,arm1,3,arm13,lion
189,16,crutches,0.466978064971,right,1,correct,decision,2,decision2,lion
190,16,stapler,0.883634619415,right,1,correct,arm2,1,arm21,lion
191,16,rose,1.16689970228,right,1,correct,arm2,2,arm22,lion
192,16,lion,0.716935351957,left,1,correct,arm2,3,arm23,lion
193,17,bolt,0.183636008063,space,1,correct,target,NaN,targetNaN,bolt
194,17,coffeepot,0.283585356083,left,1,correct,path,1,path1,bolt
195,17,mosquito,0.283573583467,left,1,correct,path,2,path2,bolt
196,17,canoe,0.317095096223,right,1,correct,path,3,path3,bolt
197,17,domino,7.16686498839,right,1,correct,decision,1,decision1,bolt
198,17,ambulance,0.483583061956,right,1,correct,arm1,1,arm11,bolt
199,17,trunk,0.483573704259,left,1,correct,arm1,2,arm12,bolt
200,17,peach,0.116969401715,left,1,correct,arm1,3,arm13,bolt
201,17,garlic,0.666973657906,left,1,correct,decision,2,decision2,bolt
202,17,mug,1.08358432958,right,1,correct,arm2,1,arm21,bolt
203,17,branch,0.750325857429,left,1,correct,arm2,2,arm22,bolt
204,17,bolt,1.05040512583,right,1,correct,arm2,3,arm23,bolt
205,18,bolt,0.283686478855,space,1,correct,target,NaN,targetNaN,bolt
206,18,coffeepot,0.716914825374,left,1,correct,path,1,path1,bolt
207,18,mosquito,0.266982170288,left,1,correct,path,2,path2,bolt
208,18,canoe,0.384045450483,right,1,correct,path,3,path3,bolt
209,18,domino,2.33358297125,right,1,correct,decision,1,decision1,bolt
210,18,ambulance,2.41694150981,right,1,correct,arm1,1,arm11,bolt
211,18,trunk,0.483581854496,left,1,correct,arm1,2,arm12,bolt
212,18,peach,0.0668800210115,left,1,correct,arm1,3,arm13,bolt
213,18,garlic,0.983742745593,left,1,correct,decision,2,decision2,bolt
214,18,mug,1.18413649127,right,1,correct,arm2,1,arm21,bolt
215,18,branch,0.566932242829,left,1,correct,arm2,2,arm22,bolt
216,18,bolt,0.666893966962,right,1,correct,arm2,3,arm23,bolt
217,19,bolt,0.25028178608,space,-1,miss,target,NaN,targetNaN,bolt
218,19,coffeepot,1.75028933259,left,-1,miss,path,1,path1,bolt
219,19,mosquito,0.416904682992,left,-1,miss,path,2,path2,bolt
220,19,canoe,0.113539370475,right,-1,miss,path,3,path3,bolt
221,19,domino,1.1172114932,left,-1,miss,decision,1,decision1,bolt
222,19,ambulance,0.816994878696,right,-1,miss,arm1,1,arm11,bolt
223,19,trunk,0.550246649422,left,-1,miss,arm1,2,arm12,bolt
224,19,peach,0.0835834238678,left,-1,miss,arm1,3,arm13,bolt
225,19,crutches,0.650288970442,left,-1,miss,decision,2,decision2,bolt
226,19,stapler,0.533637125045,right,-1,miss,arm2,1,arm21,bolt
227,19,rose,0.966913768789,right,-1,miss,arm2,2,arm22,bolt
228,19,lion,0.466931578703,left,-1,miss,arm2,3,arm23,bolt
229,20,lion,0.416933963541,space,1,correct,target,NaN,targetNaN,lion
230,20,coffeepot,1.33356818021,left,1,correct,path,1,path1,lion
231,20,mosquito,0.650310704252,left,1,correct,path,2,path2,lion
232,20,canoe,0.113011719892,right,1,correct,path,3,path3,lion
233,20,goose,0.683706341311,right,1,correct,decision,1,decision1,lion
234,20,sailor,1.78356362204,left,1,correct,arm1,1,arm11,lion
235,20,cooker,0.616916274419,left,1,correct,arm1,2,arm12,lion
236,20,tooth,0.233611285686,left,1,correct,arm1,3,arm13,lion
237,20,crutches,1.45017987816,left,1,correct,decision,2,decision2,lion
238,20,stapler,0.883731214562,right,1,correct,arm2,1,arm21,lion
239,20,rose,1.0003085006,right,1,correct,arm2,2,arm22,lion
240,20,lion,0.40025772783,left,1,correct,arm2,3,arm23,lion
241,21,bolt,0.600269319024,space,-1,miss,target,NaN,targetNaN,bolt
242,21,coffeepot,2.55035622464,left,-1,miss,path,1,path1,bolt
243,21,mosquito,0.43358906894,left,-1,miss,path,2,path2,bolt
244,21,canoe,0.114151240326,right,-1,miss,path,3,path3,bolt
245,21,goose,0.0504075407516,right,-1,miss,decision,1,decision1,bolt
246,21,sailor,2.41692551132,left,-1,miss,arm1,1,arm11,bolt
247,21,cooker,0.433570957277,left,-1,miss,arm1,2,arm12,bolt
248,21,tooth,0.166913286084,left,-1,miss,arm1,3,arm13,bolt
249,21,crutches,0.800260987831,right,-1,miss,decision,2,decision2,bolt
250,21,stapler,0.783704892499,right,-1,miss,arm2,1,arm21,bolt
251,21,rose,0.683596162358,right,-1,miss,arm2,2,arm22,bolt
252,21,lion,0.33355067228,left,-1,miss,arm2,3,arm23,bolt
253,22,bolt,0.216988479253,space,-1,miss,target,NaN,targetNaN,bolt
254,22,coffeepot,1.46696327394,left,-1,miss,path,1,path1,bolt
255,22,mosquito,5.2333254246,left,-1,miss,path,2,path2,bolt
256,22,canoe,0.113736786647,right,-1,miss,path,3,path3,bolt
257,22,goose,3.78360467497,right,-1,miss,decision,1,decision1,bolt
258,22,sailor,2.70024915482,left,-1,miss,arm1,1,arm11,bolt
259,22,cooker,0.483570383629,left,-1,miss,arm1,2,arm12,bolt
260,22,tooth,0.116915972671,left,-1,miss,arm1,3,arm13,bolt
261,22,crutches,0.667020144407,right,-1,miss,decision,2,decision2,bolt
262,22,stapler,1.10027626203,right,-1,miss,arm2,1,arm21,bolt
263,22,rose,0.233665016713,right,-1,miss,arm2,2,arm22,bolt
264,22,lion,0.216977310367,left,-1,miss,arm2,3,arm23,bolt
265,23,lion,0.283605882199,space,1,correct,target,NaN,targetNaN,lion
266,23,coffeepot,1.98365701735,left,1,correct,path,1,path1,lion
267,23,mosquito,0.516940966481,left,1,correct,path,2,path2,lion
268,23,canoe,0.113542389357,right,1,correct,path,3,path3,lion
269,23,goose,1.80029298505,right,1,correct,decision,1,decision1,lion
270,23,sailor,2.11691023712,left,1,correct,arm1,1,arm11,lion
271,23,cooker,0.633581341244,left,1,correct,arm1,2,arm12,lion
272,23,tooth,0.766932363622,left,1,correct,arm1,3,arm13,lion
273,23,crutches,0.583612402435,right,1,correct,decision,2,decision2,lion
274,23,stapler,0.766900064657,right,1,correct,arm2,1,arm21,lion
275,23,rose,0.266993339173,right,1,correct,arm2,2,arm22,lion
276,23,lion,0.217006892664,left,1,correct,arm2,3,arm23,lion
277,24,bolt,0.28359048767,space,-1,miss,target,NaN,targetNaN,bolt
278,24,coffeepot,2.2336761856,left,-1,miss,path,1,path1,bolt
279,24,mosquito,0.333614062751,left,-1,miss,path,2,path2,bolt
280,24,canoe,0.113099259324,right,-1,miss,path,3,path3,bolt
281,24,goose,0.78338944912,right,-1,miss,decision,1,decision1,bolt
282,24,sailor,1.0002976337,left,-1,miss,arm1,1,arm11,bolt
283,24,cooker,0.216910297517,left,-1,miss,arm1,2,arm12,bolt
284,24,tooth,0.267011148855,left,-1,miss,arm1,3,arm13,bolt
285,24,crutches,0.383587831166,right,-1,miss,decision,2,decision2,bolt
286,24,stapler,0.766941721085,right,-1,miss,arm2,1,arm21,bolt
287,24,rose,0.167005353142,right,-1,miss,arm2,2,arm22,bolt
288,24,lion,0.233569629025,left,-1,miss,arm2,3,arm23,bolt
289,25,lion,0.250273333862,space,1,correct,target,NaN,targetNaN,lion
290,25,coffeepot,4.90047717979,left,1,correct,path,1,path1,lion
291,25,mosquito,0.350243208231,left,1,correct,path,2,path2,lion
292,25,canoe,0.216917844256,right,1,correct,path,3,path3,lion
293,25,goose,0.883572134422,left,1,correct,decision,1,decision1,lion
294,25,sailor,1.25027152267,left,1,correct,arm1,1,arm11,lion
295,25,cooker,0.133584359894,left,1,correct,arm1,2,arm12,lion
296,25,tooth,0.200254890369,left,1,correct,arm1,3,arm13,lion
297,25,crutches,0.38362314878,right,1,correct,decision,2,decision2,lion
298,25,stapler,0.750323140761,right,1,correct,arm2,1,arm21,lion
299,25,rose,0.533593958942,right,1,correct,arm2,2,arm22,lion
300,25,lion,0.750059315469,left,1,correct,arm2,3,arm23,lion
301,26,bolt,0.216935351957,space,-1,miss,target,NaN,targetNaN,bolt
302,26,coffeepot,1.06689330284,left,-1,miss,path,1,path1,bolt
303,26,mosquito,0.500966252526,left,-1,miss,path,2,path2,bolt
304,26,canoe,0.112406189553,right,-1,miss,path,3,path3,bolt
305,26,goose,1.06696725846,right,-1,miss,decision,1,decision1,bolt
306,26,sailor,1.88362194132,left,-1,miss,arm1,1,arm11,bolt
307,26,cooker,0.40025652037,left,-1,miss,arm1,2,arm12,bolt
308,26,tooth,2.3669179345,left,-1,miss,arm1,3,arm13,bolt
309,26,crutches,0.700363861397,left,-1,miss,decision,2,decision2,bolt
310,26,stapler,2.75025250576,right,-1,miss,arm2,1,arm21,bolt
311,26,rose,0.183572617359,right,-1,miss,arm2,2,arm22,bolt
312,26,lion,0.233594079735,left,-1,miss,arm2,3,arm23,bolt
313,27,bolt,1.4335984264,space,1,correct,target,NaN,targetNaN,bolt
314,27,coffeepot,0.866938763065,left,1,correct,path,1,path1,bolt
315,27,mosquito,0.467065000674,left,1,correct,path,2,path2,bolt
316,27,canoe,0.316882888786,right,1,correct,path,3,path3,bolt
317,27,domino,0.850288487272,left,1,correct,decision,1,decision1,bolt
318,27,ambulance,0.43367298576,right,1,correct,arm1,1,arm11,bolt
319,27,trunk,0.800932323793,left,1,correct,arm1,2,arm12,bolt
320,27,peach,0.23358200537,left,1,correct,arm1,3,arm13,bolt
321,27,garlic,0.533662782982,left,1,correct,decision,2,decision2,bolt
322,27,mug,2.23336557206,right,1,correct,arm2,1,arm21,bolt
323,27,branch,0.516917723231,left,1,correct,arm2,2,arm22,bolt
324,27,bolt,0.633587378543,right,1,correct,arm2,3,arm23,bolt
325,28,bolt,0.550327547826,space,-1,miss,target,NaN,targetNaN,bolt
326,28,coffeepot,2.11690540751,left,-1,miss,path,1,path1,bolt
327,28,mosquito,0.400264670374,left,-1,miss,path,2,path2,bolt
328,28,canoe,0.966939426959,right,-1,miss,path,3,path3,bolt
329,28,domino,0.933660005918,right,-1,miss,decision,1,decision1,bolt
330,28,ambulance,0.933375050314,right,-1,miss,arm1,1,arm11,bolt
331,28,trunk,0.550284381956,left,-1,miss,arm1,2,arm12,bolt
332,28,peach,0.23360313545,left,-1,miss,arm1,3,arm13,bolt
333,28,crutches,0.500307293143,left,-1,miss,decision,2,decision2,bolt
334,28,stapler,1.01693221251,right,-1,miss,arm2,1,arm21,bolt
335,28,rose,0.33359836624,right,-1,miss,arm2,2,arm22,bolt
336,28,lion,0.383682615124,left,-1,miss,arm2,3,arm23,bolt
337,29,bolt,0.167593073798,space,1,correct,target,NaN,targetNaN,bolt
338,29,coffeepot,0.316904320847,left,1,correct,path,1,path1,bolt
339,29,mosquito,1.33360319585,left,1,correct,path,2,path2,bolt
340,29,canoe,1.18361367029,right,1,correct,path,3,path3,bolt
341,29,domino,0.800355469808,left,1,correct,decision,1,decision1,bolt
342,29,ambulance,0.516893876484,right,1,correct,arm1,1,arm11,bolt
343,29,trunk,0.683568693232,left,1,correct,arm1,2,arm12,bolt
344,29,peach,0.18395265867,left,1,correct,arm1,3,arm13,bolt
345,29,garlic,0.617000493221,left,1,correct,decision,2,decision2,bolt
346,29,mug,0.933737583924,right,1,correct,arm2,1,arm21,bolt
347,29,branch,0.316912470851,left,1,correct,arm2,2,arm22,bolt
348,29,bolt,0.200361144729,right,1,correct,arm2,3,arm23,bolt
349,30,bolt,0.300277288305,space,1,correct,target,NaN,targetNaN,bolt
350,30,coffeepot,0.867150064791,left,1,correct,path,1,path1,bolt
351,30,mosquito,0.3502486418,left,1,correct,path,2,path2,bolt
352,30,canoe,0.114170558983,right,1,correct,path,3,path3,bolt
353,30,domino,0.683608840453,right,1,correct,decision,1,decision1,bolt
354,30,ambulance,4.78354218998,right,1,correct,arm1,1,arm11,bolt
355,30,trunk,0.500273484737,left,1,correct,arm1,2,arm12,bolt
356,30,peach,0.316906433785,left,1,correct,arm1,3,arm13,bolt
357,30,garlic,0.90028217854,right,1,correct,decision,2,decision2,bolt
358,30,mug,1.4169958448,right,1,correct,arm2,1,arm21,bolt
359,30,branch,0.50026352331,left,1,correct,arm2,2,arm22,bolt
360,30,bolt,0.383580284659,right,1,correct,arm2,3,arm23,bolt
361,31,lion,0.683591332752,space,1,correct,target,NaN,targetNaN,lion
362,31,coffeepot,0.383607452037,left,1,correct,path,1,path1,lion
363,31,mosquito,0.516911988147,left,1,correct,path,2,path2,lion
364,31,canoe,0.266894631088,right,1,correct,path,3,path3,lion
365,31,goose,0.383608055767,right,1,correct,decision,1,decision1,lion
366,31,sailor,0.58367398195,left,1,correct,arm1,1,arm11,lion
367,31,cooker,1.08357980172,left,1,correct,arm1,2,arm12,lion
368,31,tooth,1.05029041902,left,1,correct,arm1,3,arm13,lion
369,31,crutches,0.666922945529,right,1,correct,decision,2,decision2,lion
370,31,stapler,0.750245864503,right,1,correct,arm2,1,arm21,lion
371,31,rose,0.216992705362,right,1,correct,arm2,2,arm22,lion
372,31,lion,0.183601595927,left,1,correct,arm2,3,arm23,lion
373,32,lion,0.233614002354,space,-1,miss,target,NaN,targetNaN,lion
374,32,coffeepot,0.533591242274,left,-1,miss,path,1,path1,lion
375,32,mosquito,0.450297301635,left,-1,miss,path,2,path2,lion
376,32,canoe,0.283589581959,right,-1,miss,path,3,path3,lion
377,32,domino,0.500387889799,right,-1,miss,decision,1,decision1,lion
378,32,ambulance,1.76695983275,right,-1,miss,arm1,1,arm11,lion
379,32,trunk,0.250224734424,left,-1,miss,arm1,2,arm12,lion
380,32,peach,0.200218063546,left,-1,miss,arm1,3,arm13,lion
381,32,garlic,0.600293467985,right,-1,miss,decision,2,decision2,lion
382,32,mug,1.00030548195,right,-1,miss,arm2,1,arm21,lion
383,32,branch,0.316978276474,left,-1,miss,arm2,2,arm22,lion
384,32,bolt,0.200247041881,right,-1,miss,arm2,3,arm23,lion
385,33,bolt,0.267332327552,space,1,correct,target,NaN,targetNaN,bolt
386,33,coffeepot,1.13356021116,left,1,correct,path,1,path1,bolt
387,33,mosquito,0.366919745691,left,1,correct,path,2,path2,bolt
388,33,canoe,0.114177501993,right,1,correct,path,3,path3,bolt
389,33,domino,1.78356633871,left,1,correct,decision,1,decision1,bolt
390,33,ambulance,1.53359909053,right,1,correct,arm1,1,arm11,bolt
391,33,trunk,0.366915519815,left,1,correct,arm1,2,arm12,bolt
392,33,peach,0.0835622937884,left,1,correct,arm1,3,arm13,bolt
393,33,garlic,0.60044077551,right,1,correct,decision,2,decision2,bolt
394,33,mug,0.88362495997,right,1,correct,arm2,1,arm21,bolt
395,33,branch,0.133596736006,left,1,correct,arm2,2,arm22,bolt
396,33,bolt,0.100317918463,right,1,correct,arm2,3,arm23,bolt
397,34,lion,0.48359694751,space,1,correct,target,NaN,targetNaN,lion
398,34,coffeepot,0.80026189331,left,1,correct,path,1,path1,lion
399,34,mosquito,0.283570564818,left,1,correct,path,2,path2,lion
400,34,canoe,0.200355711393,right,1,correct,path,3,path3,lion
401,34,goose,0.650266028941,left,1,correct,decision,1,decision1,lion
402,34,sailor,0.500250845449,left,1,correct,arm1,1,arm11,lion
403,34,cooker,0.850227209972,left,1,correct,arm1,2,arm12,lion
404,34,tooth,0.666947999969,left,1,correct,arm1,3,arm13,lion
405,34,crutches,0.683582880767,right,1,correct,decision,2,decision2,lion
406,34,stapler,1.1835741268,right,1,correct,arm2,1,arm21,lion
407,34,rose,0.333584178705,right,1,correct,arm2,2,arm22,lion
408,34,lion,0.266929948702,left,1,correct,arm2,3,arm23,lion
409,35,lion,0.166922945529,space,1,correct,target,NaN,targetNaN,lion
410,35,coffeepot,0.583589763148,left,1,correct,path,1,path1,lion
411,35,mosquito,0.433590879897,left,1,correct,path,2,path2,lion
412,35,canoe,0.283604976954,right,1,correct,path,3,path3,lion
413,35,goose,0.783615541877,left,1,correct,decision,1,decision1,lion
414,35,sailor,0.550036856905,left,1,correct,arm1,1,arm11,lion
415,35,cooker,0.466725710314,left,1,correct,arm1,2,arm12,lion
416,35,tooth,0.183592540212,left,1,correct,arm1,3,arm13,lion
417,35,crutches,0.366966835922,right,1,correct,decision,2,decision2,lion
418,35,stapler,1.35021664458,right,1,correct,arm2,1,arm21,lion
419,35,rose,0.250261259498,right,1,correct,arm2,2,arm22,lion
420,35,lion,0.233686448541,left,1,correct,arm2,3,arm23,lion
421,36,bolt,0.233585023787,space,-1,miss,target,NaN,targetNaN,bolt
422,36,coffeepot,0.466710315552,left,-1,miss,path,1,path1,bolt
423,36,mosquito,0.433660911396,left,-1,miss,path,2,path2,bolt
424,36,canoe,0.866957176477,right,-1,miss,path,3,path3,bolt
425,36,goose,0.583664020756,left,-1,miss,decision,1,decision1,bolt
426,36,sailor,0.733603437198,left,-1,miss,arm1,1,arm11,bolt
427,36,cooker,0.316902509425,left,-1,miss,arm1,2,arm12,bolt
428,36,tooth,0.216890978627,left,-1,miss,arm1,3,arm13,bolt
429,36,crutches,0.750317405211,right,-1,miss,decision,2,decision2,bolt
430,36,stapler,0.866918840213,right,-1,miss,arm2,1,arm21,bolt
431,36,rose,0.250221414026,right,-1,miss,arm2,2,arm22,bolt
432,36,lion,0.183581975289,left,-1,miss,arm2,3,arm23,bolt
433,37,lion,0.1836441583,space,1,correct,target,NaN,targetNaN,lion
434,37,coffeepot,0.333611647831,left,1,correct,path,1,path1,lion
435,37,mosquito,0.216997836949,left,1,correct,path,2,path2,lion
436,37,canoe,0.850352783455,right,1,correct,path,3,path3,lion
437,37,goose,0.350311428541,left,1,correct,decision,1,decision1,lion
438,37,sailor,0.600292864256,left,1,correct,arm1,1,arm11,lion
439,37,cooker,0.566903566243,left,1,correct,arm1,2,arm12,lion
440,37,tooth,0.167060895357,left,1,correct,arm1,3,arm13,lion
441,37,crutches,0.300414634403,right,1,correct,decision,2,decision2,lion
442,37,stapler,0.733614907833,right,1,correct,arm2,1,arm21,lion
443,37,rose,0.233580797911,right,1,correct,arm2,2,arm22,lion
444,37,lion,0.183665892109,left,1,correct,arm2,3,arm23,lion
445,38,lion,0.216900940053,space,1,correct,target,NaN,targetNaN,lion
446,38,coffeepot,0.217249587877,left,1,correct,path,1,path1,lion
447,38,mosquito,0.416880836245,left,1,correct,path,2,path2,lion
448,38,canoe,1.20032129949,right,1,correct,path,3,path3,lion
449,38,goose,0.650074951816,right,1,correct,decision,1,decision1,lion
450,38,sailor,0.433612010209,left,1,correct,arm1,1,arm11,lion
451,38,cooker,0.200288396794,left,1,correct,arm1,2,arm12,lion
452,38,tooth,0.18361910386,left,1,correct,arm1,3,arm13,lion
453,38,crutches,0.983587589813,right,1,correct,decision,2,decision2,lion
454,38,stapler,0.966740501346,right,1,correct,arm2,1,arm21,lion
455,38,rose,0.250273333862,right,1,correct,arm2,2,arm22,lion
456,38,lion,0.366939064814,left,1,correct,arm2,3,arm23,lion
457,39,lion,0.150314628379,space,1,correct,target,NaN,targetNaN,lion
458,39,coffeepot,0.250332196476,left,1,correct,path,1,path1,lion
459,39,mosquito,0.21694591688,left,1,correct,path,2,path2,lion
460,39,canoe,1.06691654609,right,1,correct,path,3,path3,lion
461,39,goose,0.30041976599,right,1,correct,decision,1,decision1,lion
462,39,sailor,0.56692801672,left,1,correct,arm1,1,arm11,lion
463,39,cooker,0.0836371548939,left,1,correct,arm1,2,arm12,lion
464,39,tooth,0.266947154654,left,1,correct,arm1,3,arm13,lion
465,39,crutches,0.333694961155,right,1,correct,decision,2,decision2,lion
466,39,stapler,0.600054093171,right,1,correct,arm2,1,arm21,lion
467,39,rose,0.0835773870349,right,1,correct,arm2,2,arm22,lion
468,39,lion,0.333593536168,left,1,correct,arm2,3,arm23,lion
469,40,bolt,1.28360165656,space,-1,miss,target,NaN,targetNaN,bolt
470,40,coffeepot,1.10027113045,left,-1,miss,path,1,path1,bolt
471,40,mosquito,0.316725619836,left,-1,miss,path,2,path2,bolt
472,40,canoe,0.667014408857,right,-1,miss,path,3,path3,bolt
473,40,goose,0.733670450049,left,-1,miss,decision,1,decision1,bolt
474,40,sailor,0.81689284998,left,-1,miss,arm1,1,arm11,bolt
475,40,cooker,0.450067284517,left,-1,miss,arm1,2,arm12,bolt
476,40,tooth,0.183604312828,left,-1,miss,arm1,3,arm13,bolt
477,40,crutches,0.933663326316,left,-1,miss,decision,2,decision2,bolt
478,40,stapler,0.267040127423,right,-1,miss,arm2,1,arm21,bolt
479,40,rose,0.200263342354,right,-1,miss,arm2,2,arm22,bolt
480,40,lion,0.233578382991,left,-1,miss,arm2,3,arm23,bolt
481,41,bolt,0.166944075609,space,1,correct,target,NaN,targetNaN,bolt
482,41,coffeepot,0.783579017036,left,1,correct,path,1,path1,bolt
483,41,mosquito,0.100251811324,left,1,correct,path,2,path2,bolt
484,41,canoe,0.11360034626,right,1,correct,path,3,path3,bolt
485,41,domino,0.716914221877,left,1,correct,decision,1,decision1,bolt
486,41,ambulance,0.683706341311,right,1,correct,arm1,1,arm11,bolt
487,41,trunk,0.566874587443,left,1,correct,arm1,2,arm12,bolt
488,41,peach,0.333585386164,left,1,correct,arm1,3,arm13,bolt
489,41,garlic,0.850343425758,right,1,correct,decision,2,decision2,bolt
490,41,mug,0.916898645926,right,1,correct,arm2,1,arm21,bolt
491,41,branch,0.300251630368,left,1,correct,arm2,2,arm22,bolt
492,41,bolt,0.266959229019,right,1,correct,arm2,3,arm23,bolt
493,42,bolt,0.216922070133,space,-1,miss,target,NaN,targetNaN,bolt
494,42,coffeepot,0.350233247038,left,-1,miss,path,1,path1,bolt
495,42,mosquito,0.633656202583,left,-1,miss,path,2,path2,bolt
496,42,canoe,0.113366405247,right,-1,miss,path,3,path3,bolt
497,42,goose,2.63356322981,right,-1,miss,decision,1,decision1,bolt
498,42,sailor,0.716910599498,left,-1,miss,arm1,1,arm11,bolt
499,42,cooker,0.450247796485,left,-1,miss,arm1,2,arm12,bolt
500,42,tooth,0.150240974501,left,-1,miss,arm1,3,arm13,bolt
501,42,crutches,0.833637909731,right,-1,miss,decision,2,decision2,bolt
502,42,stapler,0.750252807513,right,-1,miss,arm2,1,arm21,bolt
503,42,rose,0.100264791166,right,-1,miss,arm2,2,arm22,bolt
504,42,lion,0.416910418309,left,-1,miss,arm2,3,arm23,bolt
505,43,bolt,0.300272156717,space,1,correct,target,NaN,targetNaN,bolt
506,43,coffeepot,1.31693601608,left,1,correct,path,1,path1,bolt
507,43,mosquito,0.25023590331,left,1,correct,path,2,path2,bolt
508,43,canoe,0.766883462202,right,1,correct,path,3,path3,bolt
509,43,domino,0.283707910916,right,1,correct,decision,1,decision1,bolt
510,43,ambulance,0.733535820851,right,1,correct,arm1,1,arm11,bolt
511,43,trunk,0.300299323862,left,1,correct,arm1,2,arm12,bolt
512,43,peach,0.100274450611,left,1,correct,arm1,3,arm13,bolt
513,43,garlic,0.383613791084,left,1,correct,decision,2,decision2,bolt
514,43,mug,0.983600871405,right,1,correct,arm2,1,arm21,bolt
515,43,branch,0.466933691874,left,1,correct,arm2,2,arm22,bolt
516,43,bolt,0.150309798541,right,1,correct,arm2,3,arm23,bolt
517,44,lion,0.366954761557,space,1,correct,target,NaN,targetNaN,lion
518,44,coffeepot,1.05025329045,left,1,correct,path,1,path1,lion
519,44,mosquito,1.63358164323,left,1,correct,path,2,path2,lion
520,44,canoe,0.25023288466,right,1,correct,path,3,path3,lion
521,44,goose,1.43362619751,right,1,correct,decision,1,decision1,lion
522,44,sailor,0.350049112458,left,1,correct,arm1,1,arm11,lion
523,44,cooker,0.200256399577,left,1,correct,arm1,2,arm12,lion
524,44,tooth,0.150208071806,left,1,correct,arm1,3,arm13,lion
525,44,crutches,0.450392991072,left,1,correct,decision,2,decision2,lion
526,44,stapler,0.750338233775,right,1,correct,arm2,1,arm21,lion
527,44,rose,0.116939215688,right,1,correct,arm2,2,arm22,lion
528,44,lion,0.166903626407,left,1,correct,arm2,3,arm23,lion
529,45,lion,0.184355641482,space,-1,miss,target,NaN,targetNaN,lion
530,45,coffeepot,0.300766602624,left,-1,miss,path,1,path1,lion
531,45,mosquito,0.450264096959,left,-1,miss,path,2,path2,lion
532,45,canoe,0.933575183386,right,-1,miss,path,3,path3,lion
533,45,domino,1.96692493791,right,-1,miss,decision,1,decision1,lion
534,45,ambulance,0.983593626879,right,-1,miss,arm1,1,arm11,lion
535,45,trunk,0.516916817753,left,-1,miss,arm1,2,arm12,lion
536,45,peach,0.0836012337822,left,-1,miss,arm1,3,arm13,lion
537,45,garlic,0.283604976954,right,-1,miss,decision,2,decision2,lion
538,45,mug,0.733592872275,right,-1,miss,arm2,1,arm21,lion
539,45,branch,0.51710215956,left,-1,miss,arm2,2,arm22,lion
540,45,bolt,0.183649893617,right,-1,miss,arm2,3,arm23,lion
541,46,bolt,0.916916757356,space,1,correct,target,NaN,targetNaN,bolt
542,46,coffeepot,0.367034452269,left,1,correct,path,1,path1,bolt
543,46,mosquito,0.183593143942,left,1,correct,path,2,path2,bolt
544,46,canoe,0.216926296242,right,1,correct,path,3,path3,bolt
545,46,domino,0.716972480761,right,1,correct,decision,1,decision1,bolt
546,46,ambulance,0.716910901479,right,1,correct,arm1,1,arm11,bolt
547,46,trunk,0.216904562199,left,1,correct,arm1,2,arm12,bolt
548,46,peach,0.166941358941,left,1,correct,arm1,3,arm13,bolt
549,46,garlic,0.866897408385,right,1,correct,decision,2,decision2,bolt
550,46,mug,0.616906916723,right,1,correct,arm2,1,arm21,bolt
551,46,branch,0.200253984658,left,1,correct,arm2,2,arm22,bolt
552,46,bolt,0.283606184181,right,1,correct,arm2,3,arm23,bolt
553,47,lion,0.250253411243,space,-1,miss,target,NaN,targetNaN,lion
554,47,coffeepot,0.366939668544,left,-1,miss,path,1,path1,lion
555,47,mosquito,0.20027119061,left,-1,miss,path,2,path2,lion
556,47,canoe,0.600230077282,right,-1,miss,path,3,path3,lion
557,47,goose,0.48361264402,left,-1,miss,decision,1,decision1,lion
558,47,sailor,0.966911052121,left,-1,miss,arm1,1,arm11,lion
559,47,cooker,0.300258874893,left,-1,miss,arm1,2,arm12,lion
560,47,tooth,0.200291716959,left,-1,miss,arm1,3,arm13,lion
561,47,garlic,0.98365580989,right,-1,miss,decision,2,decision2,lion
562,47,mug,0.633552362677,right,-1,miss,arm2,1,arm21,lion
563,47,branch,0.300505192252,left,-1,miss,arm2,2,arm22,lion
564,47,bolt,0.216895204736,right,-1,miss,arm2,3,arm23,lion
565,48,lion,0.350251660449,space,1,correct,target,NaN,targetNaN,lion
566,48,coffeepot,0.55023457529,left,1,correct,path,1,path1,lion
567,48,mosquito,0.283649652032,left,1,correct,path,2,path2,lion
568,48,canoe,1.60023098299,right,1,correct,path,3,path3,lion
569,48,goose,0.367003964726,right,1,correct,decision,1,decision1,lion
570,48,sailor,0.350449076621,left,1,correct,arm1,1,arm11,lion
571,48,cooker,0.133594019338,left,1,correct,arm1,2,arm12,lion
572,48,tooth,0.0835924798157,left,1,correct,arm1,3,arm13,lion
573,48,crutches,0.31698099291,right,1,correct,decision,2,decision2,lion
574,48,stapler,0.900238408707,right,1,correct,arm2,1,arm21,lion
575,48,rose,0.183611557353,right,1,correct,arm2,2,arm22,lion
576,48,lion,0.150264217751,left,1,correct,arm2,3,arm23,lion
577,49,bolt,0.18361910386,space,1,correct,target,NaN,targetNaN,bolt
578,49,coffeepot,0.916964451084,left,1,correct,path,1,path1,bolt
579,49,mosquito,0.333725448931,left,1,correct,path,2,path2,bolt
580,49,canoe,0.114045891212,right,1,correct,path,3,path3,bolt
581,49,domino,0.516982925124,right,1,correct,decision,1,decision1,bolt
582,49,ambulance,0.616981778061,right,1,correct,arm1,1,arm11,bolt
583,49,trunk,0.350330143934,left,1,correct,arm1,2,arm12,bolt
584,49,peach,0.116949478863,left,1,correct,arm1,3,arm13,bolt
585,49,garlic,0.333616779651,left,1,correct,decision,2,decision2,bolt
586,49,mug,0.883732120041,right,1,correct,arm2,1,arm21,bolt
587,49,branch,0.567010122584,left,1,correct,arm2,2,arm22,bolt
588,49,bolt,0.133630242432,right,1,correct,arm2,3,arm23,bolt
589,50,lion,0.250275446801,space,-1,miss,target,NaN,targetNaN,lion
590,50,coffeepot,0.383584812749,left,-1,miss,path,1,path1,lion
591,50,mosquito,0.150266028708,left,-1,miss,path,2,path2,lion
592,50,canoe,0.316904924577,right,-1,miss,path,3,path3,lion
593,50,goose,0.533720438136,left,-1,miss,decision,1,decision1,lion
594,50,sailor,0.850251962198,left,-1,miss,arm1,1,arm11,lion
595,50,cooker,0.316927262116,left,-1,miss,arm1,2,arm12,lion
596,50,tooth,0.183748299722,left,-1,miss,arm1,3,arm13,lion
597,50,garlic,0.383713706629,right,-1,miss,decision,2,decision2,lion
598,50,mug,2.26691183704,right,-1,miss,arm2,1,arm21,lion
599,50,branch,0.550268685445,left,-1,miss,arm2,2,arm22,lion
600,50,bolt,0.166727944277,right,-1,miss,arm2,3,arm23,lion
