pic_index,trial_num,pic_name,rt,resp,feedback_code,feedback,segment,segment_index,pic_type,trial_target
1,1,arc,12.4668241167,space,-1,miss,target,NaN,targetNaN,arc
2,1,trophy,2.18355239299,right,-1,miss,path,1,path1,arc
3,1,astronaut,0.966911052354,right,-1,miss,path,2,path2,arc
4,1,robot,1.13359945267,right,-1,miss,path,3,path3,arc
5,1,watch,3.15021924069,right,-1,miss,decision,1,decision1,arc
6,1,clover,1.45024175942,left,-1,miss,arm1,1,arm11,arc
7,1,radio,0.850241397275,right,-1,miss,arm1,2,arm12,arc
8,1,wing,2.00025265664,left,-1,miss,arm1,3,arm13,arc
9,1,stepladder,2.23342051054,left,-1,miss,decision,2,decision2,arc
10,1,calc,3.10022253077,right,-1,miss,arm2,1,arm21,arc
11,1,tongue,1.98356464854,right,-1,miss,arm2,2,arm22,arc
12,1,beaver,0.91690558847,left,-1,miss,arm2,3,arm23,arc
13,2,beaver,4.15024006902,space,-1,miss,target,NaN,targetNaN,beaver
14,2,trophy,1.88358783117,right,-1,miss,path,1,path1,beaver
15,2,astronaut,0.733581099892,right,-1,miss,path,2,path2,beaver
16,2,robot,0.85031625838,right,-1,miss,path,3,path3,beaver
17,2,watch,5.25028178585,right,-1,miss,decision,1,decision1,beaver
18,2,clover,2.58356712363,left,-1,miss,arm1,1,arm11,beaver
19,2,radio,0.583580405451,right,-1,miss,arm1,2,arm12,beaver
20,2,wing,1.350242001,left,-1,miss,arm1,3,arm13,beaver
21,2,holly,1.23358713696,left,-1,miss,decision,2,decision2,beaver
22,2,match,1.40028217854,right,-1,miss,arm2,1,arm21,beaver
23,2,baby,0.900253803469,left,-1,miss,arm2,2,arm22,beaver
24,2,arc,4.63330936572,left,-1,miss,arm2,3,arm23,beaver
25,3,beaver,4.800294796,space,-1,miss,target,NaN,targetNaN,beaver
26,3,trophy,1.6169482714,right,-1,miss,path,1,path1,beaver
27,3,astronaut,1.81691005616,right,-1,miss,path,2,path2,beaver
28,3,robot,0.900272820611,right,-1,miss,path,3,path3,beaver
29,3,watch,2.53358158283,left,-1,miss,decision,1,decision1,beaver
30,3,clover,4.38354375982,left,-1,miss,arm1,1,arm11,beaver
31,3,radio,2.26691244077,right,-1,miss,arm1,2,arm12,beaver
32,3,wing,1.55061008851,left,-1,miss,arm1,3,arm13,beaver
33,3,holly,1.15027085855,left,-1,miss,decision,2,decision2,beaver
34,3,match,2.61687793816,right,-1,miss,arm2,1,arm21,beaver
35,3,baby,1.0835725572,left,-1,miss,arm2,2,arm22,beaver
36,3,arc,2.31690824497,left,-1,miss,arm2,3,arm23,beaver
37,4,arc,5.35023415252,space,1,correct,target,NaN,targetNaN,arc
38,4,trophy,3.16689940053,right,1,correct,path,1,path1,arc
39,4,astronaut,1.13360337703,right,1,correct,path,2,path2,arc
40,4,robot,1.68357684347,right,1,correct,path,3,path3,arc
41,4,watch,2.43361170823,right,1,correct,decision,1,decision1,arc
42,4,clover,1.26690247934,left,1,correct,arm1,1,arm11,arc
43,4,radio,1.6504079029,right,1,correct,arm1,2,arm12,arc
44,4,wing,1.23357808101,left,1,correct,arm1,3,arm13,arc
45,4,holly,1.90009985515,left,1,correct,decision,2,decision2,arc
46,4,match,2.98355830926,right,1,correct,arm2,1,arm21,arc
47,4,baby,0.950302131241,left,1,correct,arm2,2,arm22,arc
48,4,arc,4.55021495442,left,1,correct,arm2,3,arm23,arc
49,5,beaver,1.60029256227,space,1,correct,target,NaN,targetNaN,beaver
50,5,trophy,3.35024803807,right,1,correct,path,1,path1,beaver
51,5,astronaut,0.850287883542,right,1,correct,path,2,path2,beaver
52,5,robot,0.700249155052,right,1,correct,path,3,path3,beaver
53,5,pigeon,2.36693695164,left,1,correct,decision,1,decision1,beaver
54,5,bus,2.15027568839,right,1,correct,arm1,1,arm11,beaver
55,5,deer,0.933444176335,left,1,correct,arm1,2,arm12,beaver
56,5,fist,2.81689134077,right,1,correct,arm1,3,arm13,beaver
57,5,stepladder,0.816942656878,left,1,correct,decision,2,decision2,beaver
58,5,calc,4.30016590189,right,1,correct,arm2,1,arm21,beaver
59,5,tongue,1.05024574394,right,1,correct,arm2,2,arm22,beaver
60,5,beaver,0.950265304418,left,1,correct,arm2,3,arm23,beaver
61,6,arc,2.45026047481,space,-1,miss,target,NaN,targetNaN,arc
62,6,trophy,2.95025443751,right,-1,miss,path,1,path1,arc
63,6,astronaut,0.883563078707,right,-1,miss,path,2,path2,arc
64,6,robot,0.933391652536,right,-1,miss,path,3,path3,arc
65,6,pigeon,4.00024118577,right,-1,miss,decision,1,decision1,arc
66,6,bus,1.80022084038,right,-1,miss,arm1,1,arm11,arc
67,6,deer,2.25026005204,left,-1,miss,arm1,2,arm12,arc
68,6,fist,1.06690537743,right,-1,miss,arm1,3,arm13,arc
69,6,stepladder,1.21694591711,left,-1,miss,decision,2,decision2,arc
70,6,calc,2.73356630863,right,-1,miss,arm2,1,arm21,arc
71,6,tongue,1.73357959045,right,-1,miss,arm2,2,arm22,arc
72,6,beaver,1.35023717117,left,-1,miss,arm2,3,arm23,arc
73,7,arc,1.06697389949,space,-1,miss,target,NaN,targetNaN,arc
74,7,trophy,1.08359851711,right,-1,miss,path,1,path1,arc
75,7,astronaut,0.733595589176,right,-1,miss,path,2,path2,arc
76,7,robot,0.833595649339,right,-1,miss,path,3,path3,arc
77,7,watch,4.95026258775,right,-1,miss,decision,1,decision1,arc
78,7,clover,2.23356600665,left,-1,miss,arm1,1,arm11,arc
79,7,radio,0.733578684973,right,-1,miss,arm1,2,arm12,arc
80,7,wing,1.41692520957,left,-1,miss,arm1,3,arm13,arc
81,7,stepladder,1.6836987948,right,-1,miss,decision,2,decision2,arc
82,7,calc,2.53388917772,right,-1,miss,arm2,1,arm21,arc
83,7,tongue,0.700258814264,right,-1,miss,arm2,2,arm22,arc
84,7,beaver,1.0502623464,left,-1,miss,arm2,3,arm23,arc
85,8,arc,1.11700351187,space,-1,miss,target,NaN,targetNaN,arc
86,8,trophy,0.950262285769,right,-1,miss,path,1,path1,arc
87,8,astronaut,0.367054677103,right,-1,miss,path,2,path2,arc
88,8,robot,0.466921617277,right,-1,miss,path,3,path3,arc
89,8,pigeon,2.36694781878,left,-1,miss,decision,1,decision1,arc
90,8,bus,1.90024686069,right,-1,miss,arm1,1,arm11,arc
91,8,deer,1.76691213902,left,-1,miss,arm1,2,arm12,arc
92,8,fist,1.53358037537,right,-1,miss,arm1,3,arm13,arc
93,8,stepladder,2.10026811156,right,-1,miss,decision,2,decision2,arc
94,8,calc,7.46686879173,right,-1,miss,arm2,1,arm21,arc
95,8,tongue,1.33358810283,right,-1,miss,arm2,2,arm22,arc
96,8,beaver,1.91692219093,left,-1,miss,arm2,3,arm23,arc
97,9,arc,1.10037014028,space,-1,miss,target,NaN,targetNaN,arc
98,9,trophy,1.4670782825,right,-1,miss,path,1,path1,arc
99,9,astronaut,0.500253562117,right,-1,miss,path,2,path2,arc
100,9,robot,0.566910207039,right,-1,miss,path,3,path3,arc
101,9,watch,2.90008415864,right,-1,miss,decision,1,decision1,arc
102,9,clover,1.56697903085,left,-1,miss,arm1,1,arm11,arc
103,9,radio,0.91693185037,right,-1,miss,arm1,2,arm12,arc
104,9,wing,1.11673455499,left,-1,miss,arm1,3,arm13,arc
105,9,stepladder,3.13361394196,left,-1,miss,decision,2,decision2,arc
106,9,calc,1.10030403314,right,-1,miss,arm2,1,arm21,arc
107,9,tongue,0.750554968836,right,-1,miss,arm2,2,arm22,arc
108,9,beaver,2.16672009602,left,-1,miss,arm2,3,arm23,arc
109,10,beaver,4.43357518339,space,-1,miss,target,NaN,targetNaN,beaver
110,10,trophy,1.21691663656,right,-1,miss,path,1,path1,beaver
111,10,astronaut,0.833607119974,right,-1,miss,path,2,path2,beaver
112,10,robot,0.850228115218,right,-1,miss,path,3,path3,beaver
113,10,watch,3.90031598671,left,-1,miss,decision,1,decision1,beaver
114,10,clover,1.83356999117,left,-1,miss,arm1,1,arm11,beaver
115,10,radio,1.83359051775,right,-1,miss,arm1,2,arm12,beaver
116,10,wing,1.11694525275,left,-1,miss,arm1,3,arm13,beaver
117,10,holly,1.28369794949,right,-1,miss,decision,2,decision2,beaver
118,10,match,2.48355800752,right,-1,miss,arm2,1,arm21,beaver
119,10,baby,0.933574881405,left,-1,miss,arm2,2,arm22,beaver
120,10,arc,3.53359426069,left,-1,miss,arm2,3,arm23,beaver
121,11,arc,2.41707342258,space,0,wrong,target,NaN,targetNaN,arc
122,11,trophy,3.36692216084,right,0,wrong,path,1,path1,arc
123,11,astronaut,0.483586382354,right,0,wrong,path,2,path2,arc
124,11,robot,0.883590246085,right,0,wrong,path,3,path3,arc
125,11,pigeon,10.7001471263,left,0,wrong,decision,1,decision1,arc
126,11,bus,1.65024278569,right,0,wrong,arm1,1,arm11,arc
127,11,deer,0.883573341882,left,0,wrong,arm1,2,arm12,arc
128,11,fist,2.95023300545,right,0,wrong,arm1,3,arm13,arc
129,11,holly,1.70034182584,right,0,wrong,decision,2,decision2,arc
130,11,match,3.4169155499,right,0,wrong,arm2,1,arm21,arc
131,11,baby,2.33356757648,left,0,wrong,arm2,2,arm22,arc
132,11,arc,1.80026370473,left,0,wrong,arm2,3,arm23,arc
133,12,beaver,2.10032395576,space,-1,miss,target,NaN,targetNaN,beaver
134,12,trophy,6.80015986506,right,-1,miss,path,1,path1,beaver
135,12,astronaut,0.533591242274,right,-1,miss,path,2,path2,beaver
136,12,robot,0.450243872358,right,-1,miss,path,3,path3,beaver
137,12,watch,3.61686556204,right,-1,miss,decision,1,decision1,beaver
138,12,clover,3.00022639474,left,-1,miss,arm1,1,arm11,beaver
139,12,radio,0.916913436959,right,-1,miss,arm1,2,arm12,beaver
140,12,wing,1.61691446346,left,-1,miss,arm1,3,arm13,beaver
141,12,holly,3.05027743918,left,-1,miss,decision,2,decision2,beaver
142,12,match,1.60023430339,right,-1,miss,arm2,1,arm21,beaver
143,12,baby,0.633580737514,left,-1,miss,arm2,2,arm22,beaver
144,12,arc,1.48357340228,left,-1,miss,arm2,3,arm23,beaver
145,13,arc,1.46692584339,space,1,correct,target,NaN,targetNaN,arc
146,13,trophy,1.21694953926,right,1,correct,path,1,path1,arc
147,13,astronaut,0.433595106006,right,1,correct,path,2,path2,arc
148,13,robot,0.383590547834,right,1,correct,path,3,path3,arc
149,13,watch,6.40023025847,right,1,correct,decision,1,decision1,arc
150,13,clover,2.38357213465,left,1,correct,arm1,1,arm11,arc
151,13,radio,0.733573854901,right,1,correct,arm1,2,arm12,arc
152,13,wing,0.633592208149,left,1,correct,arm1,3,arm13,arc
153,13,holly,1.26689553657,right,1,correct,decision,2,decision2,arc
154,13,match,2.23370395671,right,1,correct,arm2,1,arm21,arc
155,13,baby,0.63370329258,left,1,correct,arm2,2,arm22,arc
156,13,arc,1.3335968568,left,1,correct,arm2,3,arm23,arc
157,14,arc,2.08365707775,space,1,correct,target,NaN,targetNaN,arc
158,14,trophy,2.60023822752,right,1,correct,path,1,path1,arc
159,14,astronaut,0.650237352354,right,1,correct,path,2,path2,arc
160,14,robot,0.483593626879,right,1,correct,path,3,path3,arc
161,14,watch,4.90027704672,left,1,correct,decision,1,decision1,arc
162,14,clover,2.95024960791,left,1,correct,arm1,1,arm11,arc
163,14,radio,0.43353956379,right,1,correct,arm1,2,arm12,arc
164,14,wing,0.800031876424,left,1,correct,arm1,3,arm13,arc
165,14,holly,2.91694150981,left,1,correct,decision,2,decision2,arc
166,14,match,1.45024749474,right,1,correct,arm2,1,arm21,arc
167,14,baby,0.683696078137,left,1,correct,arm2,2,arm22,arc
168,14,arc,2.36690223776,left,1,correct,arm2,3,arm23,arc
169,15,beaver,2.60029376973,space,-1,miss,target,NaN,targetNaN,beaver
170,15,trophy,4.21689943061,right,-1,miss,path,1,path1,beaver
171,15,astronaut,0.86692276434,right,-1,miss,path,2,path2,beaver
172,15,robot,0.466901090695,right,-1,miss,path,3,path3,beaver
173,15,watch,0.900318703381,left,-1,miss,decision,1,decision1,beaver
174,15,clover,2.4835555926,left,-1,miss,arm1,1,arm11,beaver
175,15,radio,0.916719944915,right,-1,miss,arm1,2,arm12,beaver
176,15,wing,0.733582307119,left,-1,miss,arm1,3,arm13,beaver
177,15,holly,0.683609142434,left,-1,miss,decision,2,decision2,beaver
178,15,match,3.63358375593,right,-1,miss,arm2,1,arm21,beaver
179,15,baby,0.566898434423,left,-1,miss,arm2,2,arm22,beaver
180,15,arc,2.51689387625,left,-1,miss,arm2,3,arm23,beaver
181,16,arc,1.70008283039,space,1,correct,target,NaN,targetNaN,arc
182,16,trophy,1.30026159156,right,1,correct,path,1,path1,arc
183,16,astronaut,0.5002478268,right,1,correct,path,2,path2,arc
184,16,robot,0.533600901719,right,1,correct,path,3,path3,arc
185,16,watch,4.11690510553,right,1,correct,decision,1,decision1,arc
186,16,clover,2.43358725775,left,1,correct,arm1,1,arm11,arc
187,16,radio,0.733589853859,right,1,correct,arm1,2,arm12,arc
188,16,wing,0.716866225936,left,1,correct,arm1,3,arm13,arc
189,16,holly,0.883595679654,right,1,correct,decision,2,decision2,arc
190,16,match,2.20023738244,right,1,correct,arm2,1,arm21,arc
191,16,baby,1.00057715573,left,1,correct,arm2,2,arm22,arc
192,16,arc,2.15024127648,left,1,correct,arm2,3,arm23,arc
193,17,beaver,1.71696372679,space,1,correct,target,NaN,targetNaN,beaver
194,17,trophy,1.81726474129,right,1,correct,path,1,path1,beaver
195,17,astronaut,0.466913769022,right,1,correct,path,2,path2,beaver
196,17,robot,0.700257003307,right,1,correct,path,3,path3,beaver
197,17,pigeon,2.31705042091,left,1,correct,decision,1,decision1,beaver
198,17,bus,1.95043042162,right,1,correct,arm1,1,arm11,beaver
199,17,deer,0.567030950915,left,1,correct,arm1,2,arm12,beaver
200,17,fist,1.78359018592,right,1,correct,arm1,3,arm13,beaver
201,17,stepladder,1.03343306785,left,1,correct,decision,2,decision2,beaver
202,17,calc,1.50024692132,right,1,correct,arm2,1,arm21,beaver
203,17,tongue,0.766870180378,right,1,correct,arm2,2,arm22,beaver
204,17,beaver,0.91690800339,left,1,correct,arm2,3,arm23,beaver
205,18,beaver,1.50040962361,space,1,correct,target,NaN,targetNaN,beaver
206,18,trophy,3.15022588149,right,1,correct,path,1,path1,beaver
207,18,astronaut,0.25025461847,right,1,correct,path,2,path2,beaver
208,18,robot,0.183556920616,right,1,correct,path,3,path3,beaver
209,18,pigeon,0.517028807662,left,1,correct,decision,1,decision1,beaver
210,18,bus,0.833532258868,right,1,correct,arm1,1,arm11,beaver
211,18,deer,0.500286766794,left,1,correct,arm1,2,arm12,beaver
212,18,fist,0.76691183704,right,1,correct,arm1,3,arm13,beaver
213,18,stepladder,0.516897800611,left,1,correct,decision,2,decision2,beaver
214,18,calc,1.61693015997,right,1,correct,arm2,1,arm21,beaver
215,18,tongue,0.483608116163,right,1,correct,arm2,2,arm22,beaver
216,18,beaver,1.05019955942,left,1,correct,arm2,3,arm23,beaver
217,19,arc,2.48358638212,space,1,correct,target,NaN,targetNaN,arc
218,19,trophy,10.1334922926,right,1,correct,path,1,path1,arc
219,19,astronaut,0.300260987831,right,1,correct,path,2,path2,arc
220,19,robot,0.250224734424,right,1,correct,path,3,path3,arc
221,19,watch,1.26697069965,right,1,correct,decision,1,decision1,arc
222,19,clover,1.78357177228,left,1,correct,arm1,1,arm11,arc
223,19,radio,0.517030316871,right,1,correct,arm1,2,arm12,arc
224,19,wing,0.416932152351,left,1,correct,arm1,3,arm13,arc
225,19,holly,0.700349976076,right,1,correct,decision,2,decision2,arc
226,19,match,2.43374633766,right,1,correct,arm2,1,arm21,arc
227,19,baby,1.21691361815,left,1,correct,arm2,2,arm22,arc
228,19,arc,3.23356359196,left,1,correct,arm2,3,arm23,arc
229,20,beaver,1.91696233815,space,1,correct,target,NaN,targetNaN,beaver
230,20,trophy,1.08358312212,right,1,correct,path,1,path1,beaver
231,20,astronaut,0.366924877279,right,1,correct,path,2,path2,beaver
232,20,robot,0.266902479343,right,1,correct,path,3,path3,beaver
233,20,pigeon,0.500283144414,left,1,correct,decision,1,decision1,beaver
234,20,bus,1.10024094442,right,1,correct,arm1,1,arm11,beaver
235,20,deer,0.333631872432,left,1,correct,arm1,2,arm12,beaver
236,20,fist,0.683655025205,right,1,correct,arm1,3,arm13,beaver
237,20,stepladder,0.433656383539,left,1,correct,decision,2,decision2,beaver
238,20,calc,1.30008138157,right,1,correct,arm2,1,arm21,beaver
239,20,tongue,0.53357977164,right,1,correct,arm2,2,arm22,beaver
240,20,beaver,0.816920017591,left,1,correct,arm2,3,arm23,beaver
241,21,beaver,1.35035519814,space,-1,miss,target,NaN,targetNaN,beaver
242,21,trophy,0.866915821563,right,-1,miss,path,1,path1,beaver
243,21,astronaut,0.383613187587,right,-1,miss,path,2,path2,beaver
244,21,robot,0.250260655768,right,-1,miss,path,3,path3,beaver
245,21,pigeon,1.63368246425,left,-1,miss,decision,1,decision1,beaver
246,21,bus,0.883627072908,right,-1,miss,arm1,1,arm11,beaver
247,21,deer,0.400259237038,left,-1,miss,arm1,2,arm12,beaver
248,21,fist,0.433726113057,right,-1,miss,arm1,3,arm13,beaver
249,21,holly,0.300299022114,left,-1,miss,decision,2,decision2,beaver
250,21,match,1.0502502718,right,-1,miss,arm2,1,arm21,beaver
251,21,baby,0.683386370074,left,-1,miss,arm2,2,arm22,beaver
252,21,arc,2.70022168569,left,-1,miss,arm2,3,arm23,beaver
253,22,arc,0.816941449419,space,-1,miss,target,NaN,targetNaN,arc
254,22,trophy,1.75023741252,right,-1,miss,path,1,path1,arc
255,22,astronaut,0.367921919795,right,-1,miss,path,2,path2,arc
256,22,robot,0.350242302753,right,-1,miss,path,3,path3,arc
257,22,pigeon,0.666955848224,right,-1,miss,decision,1,decision1,arc
258,22,bus,0.783618560294,right,-1,miss,arm1,1,arm11,arc
259,22,deer,0.28356664069,left,-1,miss,arm1,2,arm12,arc
260,22,fist,0.36689831363,right,-1,miss,arm1,3,arm13,arc
261,22,stepladder,0.283599543385,right,-1,miss,decision,2,decision2,arc
262,22,calc,1.98362773703,right,-1,miss,arm2,1,arm21,arc
263,22,tongue,0.483559516724,right,-1,miss,arm2,2,arm22,arc
264,22,beaver,2.55023155641,left,-1,miss,arm2,3,arm23,arc
265,23,arc,0.966990743065,space,0,wrong,target,NaN,targetNaN,arc
266,23,trophy,1.6835741268,right,0,wrong,path,1,path1,arc
267,23,astronaut,0.266892216168,right,0,wrong,path,2,path2,arc
268,23,robot,0.183382143965,right,0,wrong,path,3,path3,arc
269,23,pigeon,0.550311549334,left,0,wrong,decision,1,decision1,arc
270,23,bus,0.900264670607,right,0,wrong,arm1,1,arm11,arc
271,23,deer,0.983583967434,left,0,wrong,arm1,2,arm12,arc
272,23,fist,1.01691742148,right,0,wrong,arm1,3,arm13,arc
273,23,holly,0.350375120994,left,0,wrong,decision,2,decision2,arc
274,23,match,2.23359890934,right,0,wrong,arm2,1,arm21,arc
275,23,baby,0.583619345445,left,0,wrong,arm2,2,arm22,arc
276,23,arc,2.05022672657,left,0,wrong,arm2,3,arm23,arc
277,24,arc,1.33362885402,space,0,wrong,target,NaN,targetNaN,arc
278,24,trophy,0.883592057275,right,0,wrong,path,1,path1,arc
279,24,astronaut,0.266926930053,right,0,wrong,path,2,path2,arc
280,24,robot,0.183590729022,right,0,wrong,path,3,path3,arc
281,24,pigeon,3.18374799797,left,0,wrong,decision,1,decision1,arc
282,24,bus,1.33375986083,right,0,wrong,arm1,1,arm11,arc
283,24,deer,0.600269319024,left,0,wrong,arm1,2,arm12,arc
284,24,fist,0.450450646225,right,0,wrong,arm1,3,arm13,arc
285,24,holly,0.550294645131,right,0,wrong,decision,2,decision2,arc
286,24,match,2.5002309226,right,0,wrong,arm2,1,arm21,arc
287,24,baby,0.450273756636,left,0,wrong,arm2,2,arm22,arc
288,24,arc,3.33357633045,left,0,wrong,arm2,3,arm23,arc
289,25,arc,1.55032120901,space,-1,miss,target,NaN,targetNaN,arc
290,25,trophy,1.63356956863,right,-1,miss,path,1,path1,arc
291,25,astronaut,0.416898041964,right,-1,miss,path,2,path2,arc
292,25,robot,0.316886812914,right,-1,miss,path,3,path3,arc
293,25,watch,2.73361581354,right,-1,miss,decision,1,decision1,arc
294,25,clover,2.95022636442,left,-1,miss,arm1,1,arm11,arc
295,25,radio,0.466923730215,right,-1,miss,arm1,2,arm12,arc
296,25,wing,0.516931307036,left,-1,miss,arm1,3,arm13,arc
297,25,stepladder,2.0003091041,left,-1,miss,decision,2,decision2,arc
298,25,calc,1.76691515767,right,-1,miss,arm2,1,arm21,arc
299,25,tongue,0.583594592987,right,-1,miss,arm2,2,arm22,arc
300,25,beaver,1.01691893069,left,-1,miss,arm2,3,arm23,arc
301,26,beaver,1.21697097155,space,1,correct,target,NaN,targetNaN,beaver
302,26,trophy,0.767068804009,right,1,correct,path,1,path1,beaver
303,26,astronaut,0.433609897038,right,1,correct,path,2,path2,beaver
304,26,robot,0.350355198141,right,1,correct,path,3,path3,beaver
305,26,pigeon,1.51693764608,right,1,correct,decision,1,decision1,beaver
306,26,bus,0.883649108699,right,1,correct,arm1,1,arm11,beaver
307,26,deer,0.48359121196,left,1,correct,arm1,2,arm12,beaver
308,26,fist,0.400239314418,right,1,correct,arm1,3,arm13,beaver
309,26,stepladder,0.433434214676,right,1,correct,decision,2,decision2,beaver
310,26,calc,1.56690718862,right,1,correct,arm2,1,arm21,beaver
311,26,tongue,0.500276503386,right,1,correct,arm2,2,arm22,beaver
312,26,beaver,1.03358701617,left,1,correct,arm2,3,arm23,beaver
313,27,beaver,1.3836424679,space,1,correct,target,NaN,targetNaN,beaver
314,27,trophy,0.783582337201,right,1,correct,path,1,path1,beaver
315,27,astronaut,0.150233729742,right,1,correct,path,2,path2,beaver
316,27,robot,0.200249155052,right,1,correct,path,3,path3,beaver
317,27,pigeon,0.466905618785,right,1,correct,decision,1,decision1,beaver
318,27,bus,0.566965447273,right,1,correct,arm1,1,arm11,beaver
319,27,deer,0.183620009338,left,1,correct,arm1,2,arm12,beaver
320,27,fist,0.183698191075,right,1,correct,arm1,3,arm13,beaver
321,27,stepladder,0.0170469193254,right,1,correct,decision,2,decision2,beaver
322,27,calc,1.16711613559,right,1,correct,arm2,1,arm21,beaver
323,27,tongue,0.383641260443,right,1,correct,arm2,2,arm22,beaver
324,27,beaver,1.31694869418,left,1,correct,arm2,3,arm23,beaver
325,28,arc,2.16694498132,space,0,wrong,target,NaN,targetNaN,arc
326,28,trophy,3.75020873593,right,0,wrong,path,1,path1,arc
327,28,astronaut,1.35025407514,right,0,wrong,path,2,path2,arc
328,28,robot,0.383574851323,right,0,wrong,path,3,path3,arc
329,28,pigeon,2.06703578052,left,0,wrong,decision,1,decision1,arc
330,28,bus,1.50028676656,right,0,wrong,arm1,1,arm11,arc
331,28,deer,1.03360241093,left,0,wrong,arm1,2,arm12,arc
332,28,fist,0.566926205531,right,0,wrong,arm1,3,arm13,arc
333,28,holly,0.400324136717,left,0,wrong,decision,2,decision2,arc
334,28,match,0.566940694815,right,0,wrong,arm2,1,arm21,arc
335,28,baby,0.816992161795,left,0,wrong,arm2,2,arm22,arc
336,28,arc,2.4836392079,left,0,wrong,arm2,3,arm23,arc
337,29,beaver,1.43378920178,space,-1,miss,target,NaN,targetNaN,beaver
338,29,trophy,0.783576300135,right,-1,miss,path,1,path1,beaver
339,29,astronaut,0.133578624343,right,-1,miss,path,2,path2,beaver
340,29,robot,0.166911776876,right,-1,miss,path,3,path3,beaver
341,29,pigeon,0.500296727987,right,-1,miss,decision,1,decision1,beaver
342,29,bus,0.216933842516,right,-1,miss,arm1,1,arm11,beaver
343,29,deer,0.500376720913,left,-1,miss,arm1,2,arm12,beaver
344,29,fist,0.283593204338,right,-1,miss,arm1,3,arm13,beaver
345,29,holly,0.583660398377,right,-1,miss,decision,2,decision2,beaver
346,29,match,0.850273696007,right,-1,miss,arm2,1,arm21,beaver
347,29,baby,0.383730308851,left,-1,miss,arm2,2,arm22,beaver
348,29,arc,1.43359812442,left,-1,miss,arm2,3,arm23,beaver
349,30,beaver,1.95029549045,space,-1,miss,target,NaN,targetNaN,beaver
350,30,trophy,3.25044750678,right,-1,miss,path,1,path1,beaver
351,30,astronaut,0.250236809021,right,-1,miss,path,2,path2,beaver
352,30,robot,0.200272096321,right,-1,miss,path,3,path3,beaver
353,30,pigeon,1.40024082363,right,-1,miss,decision,1,decision1,beaver
354,30,bus,3.20023436379,right,-1,miss,arm1,1,arm11,beaver
355,30,deer,0.516703101108,left,-1,miss,arm1,2,arm12,beaver
356,30,fist,0.466921013547,right,-1,miss,arm1,3,arm13,beaver
357,30,holly,0.317048307974,right,-1,miss,decision,2,decision2,beaver
358,30,match,2.91701455996,right,-1,miss,arm2,1,arm21,beaver
359,30,baby,0.466897468548,left,-1,miss,arm2,2,arm22,beaver
360,30,arc,1.25024465728,left,-1,miss,arm2,3,arm23,beaver
361,31,beaver,1.01694157021,space,1,correct,target,NaN,targetNaN,beaver
362,31,trophy,1.30027125101,right,1,correct,path,1,path1,beaver
363,31,astronaut,0.183564769104,right,1,correct,path,2,path2,beaver
364,31,robot,0.150263010291,right,1,correct,path,3,path3,beaver
365,31,pigeon,1.41709304345,left,1,correct,decision,1,decision1,beaver
366,31,bus,1.78364120005,right,1,correct,arm1,1,arm11,beaver
367,31,deer,0.400252897991,left,1,correct,arm1,2,arm12,beaver
368,31,fist,0.333384045633,right,1,correct,arm1,3,arm13,beaver
369,31,stepladder,0.267023223219,left,1,correct,decision,2,decision2,beaver
370,31,calc,1.31693028077,right,1,correct,arm2,1,arm21,beaver
371,31,tongue,0.750212056329,right,1,correct,arm2,2,arm22,beaver
372,31,beaver,0.683591936482,left,1,correct,arm2,3,arm23,beaver
373,32,arc,1.20029020775,space,-1,miss,target,NaN,targetNaN,arc
374,32,trophy,2.16691841767,right,-1,miss,path,1,path1,arc
375,32,astronaut,0.166918417672,right,-1,miss,path,2,path2,arc
376,32,robot,0.150253048865,right,-1,miss,path,3,path3,arc
377,32,watch,2.51688089641,right,-1,miss,decision,1,decision1,arc
378,32,clover,5.28351804125,left,-1,miss,arm1,1,arm11,arc
379,32,radio,0.650235239184,right,-1,miss,arm1,2,arm12,arc
380,32,wing,0.600376781309,left,-1,miss,arm1,3,arm13,arc
381,32,stepladder,1.11692623561,right,-1,miss,decision,2,decision2,arc
382,32,calc,1.0836102895,right,-1,miss,arm2,1,arm21,arc
383,32,tongue,0.483600267675,right,-1,miss,arm2,2,arm22,arc
384,32,beaver,1.80023714085,left,-1,miss,arm2,3,arm23,arc
385,33,beaver,0.883644580841,space,-1,miss,target,NaN,targetNaN,beaver
386,33,trophy,0.683581069577,right,-1,miss,path,1,path1,beaver
387,33,astronaut,0.466914674733,right,-1,miss,path,2,path2,beaver
388,33,robot,0.30024770624,right,-1,miss,path,3,path3,beaver
389,33,pigeon,0.300407993607,left,-1,miss,decision,1,decision1,beaver
390,33,bus,0.40027523553,right,-1,miss,arm1,1,arm11,beaver
391,33,deer,0.366932121804,left,-1,miss,arm1,2,arm12,beaver
392,33,fist,0.333758049877,right,-1,miss,arm1,3,arm13,beaver
393,33,holly,0.28381446749,left,-1,miss,decision,2,decision2,beaver
394,33,match,0.916981959017,right,-1,miss,arm2,1,arm21,beaver
395,33,baby,0.433612613939,left,-1,miss,arm2,2,arm22,beaver
396,33,arc,2.03358943108,left,-1,miss,arm2,3,arm23,beaver
397,34,arc,1.11697483528,space,1,correct,target,NaN,targetNaN,arc
398,34,trophy,0.900247464655,right,1,correct,path,1,path1,arc
399,34,astronaut,0.316939336481,right,1,correct,path,2,path2,arc
400,34,robot,0.250241940608,right,1,correct,path,3,path3,arc
401,34,watch,2.90024867211,right,1,correct,decision,1,decision1,arc
402,34,clover,5.56686522975,left,1,correct,arm1,1,arm11,arc
403,34,radio,0.53359667561,right,1,correct,arm1,2,arm12,arc
404,34,wing,0.616906916723,left,1,correct,arm1,3,arm13,arc
405,34,holly,1.61700653029,left,1,correct,decision,2,decision2,arc
406,34,match,2.33362040203,right,1,correct,arm2,1,arm21,arc
407,34,baby,0.533588827122,left,1,correct,arm2,2,arm22,arc
408,34,arc,1.71691150498,left,1,correct,arm2,3,arm23,arc
409,35,arc,1.03362233378,space,0,wrong,target,NaN,targetNaN,arc
410,35,trophy,0.633620884735,right,0,wrong,path,1,path1,arc
411,35,astronaut,0.250240733149,right,0,wrong,path,2,path2,arc
412,35,robot,0.200258210767,right,0,wrong,path,3,path3,arc
413,35,pigeon,1.33361255354,right,0,wrong,decision,1,decision1,arc
414,35,bus,1.63355085347,right,0,wrong,arm1,1,arm11,arc
415,35,deer,0.333581160288,left,0,wrong,arm1,2,arm12,arc
416,35,fist,0.283586865291,right,0,wrong,arm1,3,arm13,arc
417,35,holly,0.567072607344,left,0,wrong,decision,2,decision2,arc
418,35,match,1.23378093075,right,0,wrong,arm2,1,arm21,arc
419,35,baby,0.483601173386,left,0,wrong,arm2,2,arm22,arc
420,35,arc,1.18359736982,left,0,wrong,arm2,3,arm23,arc
421,36,beaver,1.40030572354,space,-1,miss,target,NaN,targetNaN,beaver
422,36,trophy,0.783598637674,right,-1,miss,path,1,path1,beaver
423,36,astronaut,0.333571500378,right,-1,miss,path,2,path2,beaver
424,36,robot,0.233572647674,right,-1,miss,path,3,path3,beaver
425,36,pigeon,0.566980540287,left,-1,miss,decision,1,decision1,beaver
426,36,bus,1.38340037642,right,-1,miss,arm1,1,arm11,beaver
427,36,deer,0.316919413628,left,-1,miss,arm1,2,arm12,beaver
428,36,fist,0.33359142323,right,-1,miss,arm1,3,arm13,beaver
429,36,holly,0.283701873617,left,-1,miss,decision,2,decision2,beaver
430,36,match,1.55025238474,right,-1,miss,arm2,1,arm21,beaver
431,36,baby,0.416933359811,left,-1,miss,arm2,2,arm22,beaver
432,36,arc,0.95025624847,left,-1,miss,arm2,3,arm23,beaver
433,37,beaver,1.03366157552,space,0,wrong,target,NaN,targetNaN,beaver
434,37,trophy,1.03367878147,right,0,wrong,path,1,path1,beaver
435,37,astronaut,1.01691319561,right,0,wrong,path,2,path2,beaver
436,37,robot,0.550264459336,right,0,wrong,path,3,path3,beaver
437,37,watch,0.683668307029,right,0,wrong,decision,1,decision1,beaver
438,37,clover,2.46693037124,left,0,wrong,arm1,1,arm11,beaver
439,37,radio,0.417012145044,right,0,wrong,arm1,2,arm12,beaver
440,37,wing,0.616928650532,left,0,wrong,arm1,3,arm13,beaver
441,37,stepladder,0.666972148698,right,0,wrong,decision,2,decision2,beaver
442,37,calc,0.833626740845,right,0,wrong,arm2,1,arm21,beaver
443,37,tongue,0.700310130604,right,0,wrong,arm2,2,arm22,beaver
444,37,beaver,1.08370477171,left,0,wrong,arm2,3,arm23,beaver
445,38,arc,1.61696517584,space,-1,miss,target,NaN,targetNaN,arc
446,38,trophy,0.783827749081,right,-1,miss,path,1,path1,arc
447,38,astronaut,0.583688471233,right,-1,miss,path,2,path2,arc
448,38,robot,0.350254679099,right,-1,miss,path,3,path3,arc
449,38,pigeon,1.28359229886,right,-1,miss,decision,1,decision1,arc
450,38,bus,0.900469935033,right,-1,miss,arm1,1,arm11,arc
451,38,deer,0.400294252671,left,-1,miss,arm1,2,arm12,arc
452,38,fist,0.416957508307,right,-1,miss,arm1,3,arm13,arc
453,38,stepladder,0.317051024642,left,-1,miss,decision,2,decision2,arc
454,38,calc,0.583613308147,right,-1,miss,arm2,1,arm21,arc
455,38,tongue,0.466911957832,right,-1,miss,arm2,2,arm22,arc
456,38,beaver,1.50024661934,left,-1,miss,arm2,3,arm23,arc
457,39,beaver,0.750292351004,space,-1,miss,target,NaN,targetNaN,beaver
458,39,trophy,4.91686966736,right,-1,miss,path,1,path1,beaver
459,39,astronaut,0.250237714499,right,-1,miss,path,2,path2,beaver
460,39,robot,0.200274209259,right,-1,miss,path,3,path3,beaver
461,39,pigeon,2.45031360188,left,-1,miss,decision,1,decision1,beaver
462,39,bus,2.48357279855,right,-1,miss,arm1,1,arm11,beaver
463,39,deer,0.650249426719,left,-1,miss,arm1,2,arm12,beaver
464,39,fist,0.300237442832,right,-1,miss,arm1,3,arm13,beaver
465,39,holly,1.6336531837,right,-1,miss,decision,2,decision2,beaver
466,39,match,2.9502502114,right,-1,miss,arm2,1,arm21,beaver
467,39,baby,0.450260474812,left,-1,miss,arm2,2,arm22,beaver
468,39,arc,1.16691328608,left,-1,miss,arm2,3,arm23,beaver
469,40,beaver,1.16698754346,space,-1,miss,target,NaN,targetNaN,beaver
470,40,trophy,1.10024517053,right,-1,miss,path,1,path1,beaver
471,40,astronaut,0.350330143701,right,-1,miss,path,2,path2,beaver
472,40,robot,0.23357868474,right,-1,miss,path,3,path3,beaver
473,40,pigeon,7.03353147395,left,-1,miss,decision,1,decision1,beaver
474,40,bus,1.23361792671,right,-1,miss,arm1,1,arm11,beaver
475,40,deer,0.633582548704,left,-1,miss,arm1,2,arm12,beaver
476,40,fist,0.350230530137,right,-1,miss,arm1,3,arm13,beaver
477,40,holly,0.400354020996,left,-1,miss,decision,2,decision2,beaver
478,40,match,2.48356495029,right,-1,miss,arm2,1,arm21,beaver
479,40,baby,0.416915248148,left,-1,miss,arm2,2,arm22,beaver
480,40,arc,1.31686960696,left,-1,miss,arm2,3,arm23,beaver
481,41,beaver,1.90025561489,space,-1,miss,target,NaN,targetNaN,beaver
482,41,trophy,0.9502568522,right,-1,miss,path,1,path1,beaver
483,41,astronaut,0.433579711244,right,-1,miss,path,2,path2,beaver
484,41,robot,0.333585084416,right,-1,miss,path,3,path3,beaver
485,41,pigeon,0.633660730207,right,-1,miss,decision,1,decision1,beaver
486,41,bus,1.13362209243,right,-1,miss,arm1,1,arm11,beaver
487,41,deer,0.616898766486,left,-1,miss,arm1,2,arm12,beaver
488,41,fist,0.400297875283,right,-1,miss,arm1,3,arm13,beaver
489,41,holly,0.366768815788,right,-1,miss,decision,2,decision2,beaver
490,41,match,0.750266089337,right,-1,miss,arm2,1,arm21,beaver
491,41,baby,0.550276835449,left,-1,miss,arm2,2,arm22,beaver
492,41,arc,5.883515083,left,-1,miss,arm2,3,arm23,beaver
493,42,arc,1.41697079013,space,-1,miss,target,NaN,targetNaN,arc
494,42,trophy,1.61690329458,right,-1,miss,path,1,path1,arc
495,42,astronaut,0.200248551089,right,-1,miss,path,2,path2,arc
496,42,robot,0.150241276482,right,-1,miss,path,3,path3,arc
497,42,pigeon,3.36697287299,right,-1,miss,decision,1,decision1,arc
498,42,bus,1.98356102617,right,-1,miss,arm1,1,arm11,arc
499,42,deer,0.333576028701,left,-1,miss,arm1,2,arm12,arc
500,42,fist,0.216917844024,right,-1,miss,arm1,3,arm13,arc
501,42,stepladder,0.317077890038,right,-1,miss,decision,2,decision2,arc
502,42,calc,0.800336754648,right,-1,miss,arm2,1,arm21,arc
503,42,tongue,0.46691588196,right,-1,miss,arm2,2,arm22,arc
504,42,beaver,0.916960225208,left,-1,miss,arm2,3,arm23,arc
505,43,beaver,1.31715546781,space,0,wrong,target,NaN,targetNaN,beaver
506,43,trophy,1.40027493378,right,0,wrong,path,1,path1,beaver
507,43,astronaut,0.116919594817,right,0,wrong,path,2,path2,beaver
508,43,robot,0.133600660367,right,0,wrong,path,3,path3,beaver
509,43,watch,1.10029709036,left,0,wrong,decision,1,decision1,beaver
510,43,clover,1.58356350125,left,0,wrong,arm1,1,arm11,beaver
511,43,radio,0.466717258329,right,0,wrong,arm1,2,arm12,beaver
512,43,wing,0.917086100671,left,0,wrong,arm1,3,arm13,beaver
513,43,stepladder,0.750241638627,right,0,wrong,decision,2,decision2,beaver
514,43,calc,1.51690715807,right,0,wrong,arm2,1,arm21,beaver
515,43,tongue,0.650227692677,right,0,wrong,arm2,2,arm22,beaver
516,43,beaver,1.71691301418,left,0,wrong,arm2,3,arm23,beaver
517,44,arc,3.28355516982,space,-1,miss,target,NaN,targetNaN,arc
518,44,trophy,6.95021610148,right,-1,miss,path,1,path1,arc
519,44,astronaut,0.233569025295,right,-1,miss,path,2,path2,arc
520,44,robot,0.116907520453,right,-1,miss,path,3,path3,arc
521,44,watch,3.13357983204,right,-1,miss,decision,1,decision1,arc
522,44,clover,1.98340375721,left,-1,miss,arm1,1,arm11,arc
523,44,radio,0.433564919978,right,-1,miss,arm1,2,arm12,arc
524,44,wing,0.533861708362,left,-1,miss,arm1,3,arm13,arc
525,44,stepladder,1.36695838394,left,-1,miss,decision,2,decision2,arc
526,44,calc,0.916918870294,right,-1,miss,arm2,1,arm21,arc
527,44,tongue,1.23356661061,right,-1,miss,arm2,2,arm22,arc
528,44,beaver,0.833843777888,left,-1,miss,arm2,3,arm23,arc
529,45,arc,2.75031710346,space,0,wrong,target,NaN,targetNaN,arc
530,45,trophy,2.01730048144,right,0,wrong,path,1,path1,arc
531,45,astronaut,0.0669545803685,right,0,wrong,path,2,path2,arc
532,45,robot,0.0502246136311,right,0,wrong,path,3,path3,arc
533,45,pigeon,4.7003276383,right,0,wrong,decision,1,decision1,arc
534,45,bus,2.16688370379,right,0,wrong,arm1,1,arm11,arc
535,45,deer,0.700235269498,left,0,wrong,arm1,2,arm12,arc
536,45,fist,0.183547261404,right,0,wrong,arm1,3,arm13,arc
537,45,holly,0.25039045536,right,0,wrong,decision,2,decision2,arc
538,45,match,0.866917632986,right,0,wrong,arm2,1,arm21,arc
539,45,baby,0.400056085549,left,0,wrong,arm2,2,arm22,arc
540,45,arc,0.98357189307,left,0,wrong,arm2,3,arm23,arc
541,46,beaver,3.66688883537,space,0,wrong,target,NaN,targetNaN,beaver
542,46,trophy,2.00024239323,right,0,wrong,path,1,path1,beaver
543,46,astronaut,0.150294705527,right,0,wrong,path,2,path2,beaver
544,46,robot,0.283593807835,right,0,wrong,path,3,path3,beaver
545,46,watch,6.28355184966,right,0,wrong,decision,1,decision1,beaver
546,46,clover,1.83357512299,left,0,wrong,arm1,1,arm11,beaver
547,46,radio,2.46692373022,right,0,wrong,arm1,2,arm12,beaver
548,46,wing,0.633589793229,left,0,wrong,arm1,3,arm13,beaver
549,46,stepladder,1.23370154179,right,0,wrong,decision,2,decision2,beaver
550,46,calc,0.616934989579,right,0,wrong,arm2,1,arm21,beaver
551,46,tongue,0.50024028006,right,0,wrong,arm2,2,arm22,beaver
552,46,beaver,1.28357780958,left,0,wrong,arm2,3,arm23,beaver
553,47,beaver,2.83362613735,space,-1,miss,target,NaN,targetNaN,beaver
554,47,trophy,1.08373646694,right,-1,miss,path,1,path1,beaver
555,47,astronaut,0.200247645611,right,-1,miss,path,2,path2,beaver
556,47,robot,0.266926024342,right,-1,miss,path,3,path3,beaver
557,47,watch,1.1336323556,right,-1,miss,decision,1,decision1,beaver
558,47,clover,6.65020505339,left,-1,miss,arm1,1,arm11,beaver
559,47,radio,0.333567878464,right,-1,miss,arm1,2,arm12,beaver
560,47,wing,0.350236567436,left,-1,miss,arm1,3,arm13,beaver
561,47,holly,1.48362984997,left,-1,miss,decision,2,decision2,beaver
562,47,match,1.86696985457,right,-1,miss,arm2,1,arm21,beaver
563,47,baby,0.533586714417,left,-1,miss,arm2,2,arm22,beaver
564,47,arc,1.31692665839,left,-1,miss,arm2,3,arm23,beaver
565,48,arc,1.26697492576,space,-1,miss,target,NaN,targetNaN,arc
566,48,trophy,0.833588404814,right,-1,miss,path,1,path1,arc
567,48,astronaut,0.816925450927,right,-1,miss,path,2,path2,arc
568,48,robot,0.250238318229,right,-1,miss,path,3,path3,arc
569,48,watch,1.21698455513,left,-1,miss,decision,1,decision1,arc
570,48,clover,1.5837443152,left,-1,miss,arm1,1,arm11,arc
571,48,radio,0.350231737597,right,-1,miss,arm1,2,arm12,arc
572,48,wing,0.80026461021,left,-1,miss,arm1,3,arm13,arc
573,48,stepladder,1.03365493473,left,-1,miss,decision,2,decision2,arc
574,48,calc,1.48358638235,right,-1,miss,arm2,1,arm21,arc
575,48,tongue,0.66687555355,right,-1,miss,arm2,2,arm22,arc
576,48,beaver,0.817009065999,left,-1,miss,arm2,3,arm23,arc
577,49,beaver,2.46693037124,space,-1,miss,target,NaN,targetNaN,beaver
578,49,trophy,1.08366734092,right,-1,miss,path,1,path1,beaver
579,49,astronaut,0.333564557834,right,-1,miss,path,2,path2,beaver
580,49,robot,0.300286645768,right,-1,miss,path,3,path3,beaver
581,49,watch,12.0834826031,right,-1,miss,decision,1,decision1,beaver
582,49,clover,1.15026934934,left,-1,miss,arm1,1,arm11,beaver
583,49,radio,0.366907671327,right,-1,miss,arm1,2,arm12,beaver
584,49,wing,0.383614696795,left,-1,miss,arm1,3,arm13,beaver
585,49,holly,1.36695536505,left,-1,miss,decision,2,decision2,beaver
586,49,match,1.41689562704,right,-1,miss,arm2,1,arm21,beaver
587,49,baby,0.450242664898,left,-1,miss,arm2,2,arm22,beaver
588,49,arc,0.883874295978,left,-1,miss,arm2,3,arm23,beaver
589,50,arc,1.1170041156,space,1,correct,target,NaN,targetNaN,arc
590,50,trophy,1.53356437664,right,1,correct,path,1,path1,arc
591,50,astronaut,0.500273182755,right,1,correct,path,2,path2,arc
592,50,robot,0.416914946167,right,1,correct,path,3,path3,arc
593,50,watch,6.90019856323,left,1,correct,decision,1,decision1,arc
594,50,clover,1.83336351928,left,1,correct,arm1,1,arm11,arc
595,50,radio,0.416934265289,right,1,correct,arm1,2,arm12,arc
596,50,wing,0.383584208786,left,1,correct,arm1,3,arm13,arc
597,50,holly,1.38360956497,right,1,correct,decision,2,decision2,arc
598,50,match,1.71693867235,right,1,correct,arm2,1,arm21,arc
599,50,baby,0.48368267552,left,1,correct,arm2,2,arm22,arc
600,50,arc,1.3835851145,left,1,correct,arm2,3,arm23,arc
