pic_index,trial_num,pic_name,rt,resp,feedback_code,feedback,segment,segment_index,pic_type,trial_target
1,1,lion,0.866895898711,space,1,correct,target,NaN,targetNaN,lion
2,1,coffeepot,0.733580193948,left,1,correct,path,1,path1,lion
3,1,mosquito,0.86688714521,right,1,correct,path,2,path2,lion
4,1,canoe,0.633582246955,left,1,correct,path,3,path3,lion
5,1,goose,1.53358792188,left,1,correct,decision,1,decision1,lion
6,1,sailor,0.583624477033,left,1,correct,arm1,1,arm11,lion
7,1,cooker,0.566915640607,left,1,correct,arm1,2,arm12,lion
8,1,tooth,0.266891310923,right,1,correct,arm1,3,arm13,lion
9,1,crutches,0.866942083463,left,1,correct,decision,2,decision2,lion
10,1,stapler,1.11692351941,left,1,correct,arm2,1,arm21,lion
11,1,rose,0.60024969792,right,1,correct,arm2,2,arm22,lion
12,1,lion,0.183588012587,right,1,correct,arm2,3,arm23,lion
13,2,lion,0.7171173729,space,1,correct,target,NaN,targetNaN,lion
14,2,coffeepot,0.516943683382,left,1,correct,path,1,path1,lion
15,2,mosquito,0.30024136696,right,1,correct,path,2,path2,lion
16,2,canoe,0.117100107018,left,1,correct,path,3,path3,lion
17,2,goose,0.800264609978,right,1,correct,decision,1,decision1,lion
18,2,sailor,0.483589098789,left,1,correct,arm1,1,arm11,lion
19,2,cooker,0.383695293218,left,1,correct,arm1,2,arm12,lion
20,2,tooth,0.25030351989,right,1,correct,arm1,3,arm13,lion
21,2,crutches,0.783432011027,right,1,correct,decision,2,decision2,lion
22,2,stapler,0.533712287899,left,1,correct,arm2,1,arm21,lion
23,2,rose,0.466907429975,right,1,correct,arm2,2,arm22,lion
24,2,lion,0.166948301718,right,1,correct,arm2,3,arm23,lion
25,3,bolt,0.533575847279,space,0,wrong,target,NaN,targetNaN,bolt
26,3,coffeepot,0.166921134107,left,0,wrong,path,1,path1,bolt
27,3,mosquito,0.283581129741,right,0,wrong,path,2,path2,bolt
28,3,canoe,0.066936770454,left,0,wrong,path,3,path3,bolt
29,3,goose,0.533702326473,left,0,wrong,decision,1,decision1,bolt
30,3,sailor,3.43354258267,left,0,wrong,arm1,1,arm11,bolt
31,3,cooker,0.633564436808,left,0,wrong,arm1,2,arm12,bolt
32,3,tooth,0.100235208869,right,0,wrong,arm1,3,arm13,bolt
33,3,garlic,1.93366392981,right,0,wrong,decision,2,decision2,bolt
34,3,mug,0.583593385294,left,0,wrong,arm2,1,arm21,bolt
35,3,branch,0.450276171789,right,0,wrong,arm2,2,arm22,bolt
36,3,bolt,1.20032944949,left,0,wrong,arm2,3,arm23,bolt
37,4,lion,0.750272126403,space,1,correct,target,NaN,targetNaN,lion
38,4,coffeepot,0.316917904187,left,1,correct,path,1,path1,lion
39,4,mosquito,0.150227088947,right,1,correct,path,2,path2,lion
40,4,canoe,0.100240642205,left,1,correct,path,3,path3,lion
41,4,goose,0.733654149808,right,1,correct,decision,1,decision1,lion
42,4,sailor,0.566940996796,left,1,correct,arm1,1,arm11,lion
43,4,cooker,0.550268383697,left,1,correct,arm1,2,arm12,lion
44,4,tooth,0.216910297517,right,1,correct,arm1,3,arm13,lion
45,4,crutches,0.716925088782,left,1,correct,decision,2,decision2,lion
46,4,stapler,0.783552755136,left,1,correct,arm2,1,arm21,lion
47,4,rose,0.550291928463,right,1,correct,arm2,2,arm22,lion
48,4,lion,0.133548136801,right,1,correct,arm2,3,arm23,lion
49,5,lion,0.550291928463,space,1,correct,target,NaN,targetNaN,lion
50,5,coffeepot,0.183556015138,left,1,correct,path,1,path1,lion
51,5,mosquito,0.0836253827438,right,1,correct,path,2,path2,lion
52,5,canoe,0.100237623788,left,1,correct,path,3,path3,lion
53,5,goose,0.75030925544,right,1,correct,decision,1,decision1,lion
54,5,sailor,0.483761762735,left,1,correct,arm1,1,arm11,lion
55,5,cooker,0.483415529598,left,1,correct,arm1,2,arm12,lion
56,5,tooth,0.31705706194,right,1,correct,arm1,3,arm13,lion
57,5,crutches,1.48367875163,right,1,correct,decision,2,decision2,lion
58,5,stapler,0.583629910368,left,1,correct,arm2,1,arm21,lion
59,5,rose,0.583670057822,right,1,correct,arm2,2,arm22,lion
60,5,lion,0.533583696,right,1,correct,arm2,3,arm23,lion
61,6,bolt,0.833558520768,space,1,correct,target,NaN,targetNaN,bolt
62,6,coffeepot,0.266937495209,left,1,correct,path,1,path1,bolt
63,6,mosquito,0.266929345205,right,1,correct,path,2,path2,bolt
64,6,canoe,0.200241306797,left,1,correct,path,3,path3,bolt
65,6,domino,0.533556528389,left,1,correct,decision,1,decision1,bolt
66,6,ambulance,0.516937042587,left,1,correct,arm1,1,arm11,bolt
67,6,trunk,0.366928197909,right,1,correct,arm1,2,arm12,bolt
68,6,peach,0.366965628229,right,1,correct,arm1,3,arm13,bolt
69,6,garlic,0.600262678228,left,1,correct,decision,2,decision2,bolt
70,6,mug,0.616990531795,left,1,correct,arm2,1,arm21,bolt
71,6,branch,0.4503268837,right,1,correct,arm2,2,arm22,bolt
72,6,bolt,1.26691183727,left,1,correct,arm2,3,arm23,bolt
73,7,lion,0.750365401153,space,1,correct,target,NaN,targetNaN,lion
74,7,coffeepot,0.516748379916,left,1,correct,path,1,path1,lion
75,7,mosquito,0.100256339181,right,1,correct,path,2,path2,lion
76,7,canoe,0.166897589341,left,1,correct,path,3,path3,lion
77,7,goose,1.80036512949,right,1,correct,decision,1,decision1,lion
78,7,sailor,0.500280427746,left,1,correct,arm1,1,arm11,lion
79,7,cooker,0.716910599731,left,1,correct,arm1,2,arm12,lion
80,7,tooth,0.166895778384,right,1,correct,arm1,3,arm13,lion
81,7,crutches,0.566937977914,left,1,correct,decision,2,decision2,lion
82,7,stapler,0.550274420995,left,1,correct,arm2,1,arm21,lion
83,7,rose,0.317235762719,right,1,correct,arm2,2,arm22,lion
84,7,lion,0.116913557984,right,1,correct,arm2,3,arm23,lion
85,8,bolt,0.51694519259,space,1,correct,target,NaN,targetNaN,bolt
86,8,coffeepot,0.466923730448,left,1,correct,path,1,path1,bolt
87,8,mosquito,0.650262406562,right,1,correct,path,2,path2,bolt
88,8,canoe,0.300233216956,left,1,correct,path,3,path3,bolt
89,8,domino,0.633595830761,right,1,correct,decision,1,decision1,bolt
90,8,ambulance,0.450286434498,left,1,correct,arm1,1,arm11,bolt
91,8,trunk,0.517086462583,right,1,correct,arm1,2,arm12,bolt
92,8,peach,0.0835936870426,right,1,correct,arm1,3,arm13,bolt
93,8,garlic,0.583599120844,left,1,correct,decision,2,decision2,bolt
94,8,mug,1.43356341077,left,1,correct,arm2,1,arm21,bolt
95,8,branch,0.55034264084,right,1,correct,arm2,2,arm22,bolt
96,8,bolt,1.51691259164,left,1,correct,arm2,3,arm23,bolt
97,9,lion,0.566924998071,space,1,correct,target,NaN,targetNaN,lion
98,9,coffeepot,1.25028812466,left,1,correct,path,1,path1,lion
99,9,mosquito,0.150766210631,right,1,correct,path,2,path2,lion
100,9,canoe,0.100274752825,left,1,correct,path,3,path3,lion
101,9,goose,1.80041825678,right,1,correct,decision,1,decision1,lion
102,9,sailor,0.616980872117,left,1,correct,arm1,1,arm11,lion
103,9,cooker,0.516922854818,left,1,correct,arm1,2,arm12,lion
104,9,tooth,0.433571259025,right,1,correct,arm1,3,arm13,lion
105,9,crutches,1.75051331241,left,1,correct,decision,2,decision2,lion
106,9,stapler,0.700050229672,left,1,correct,arm2,1,arm21,lion
107,9,rose,0.516946701799,right,1,correct,arm2,2,arm22,lion
108,9,lion,1.03361237235,right,1,correct,arm2,3,arm23,lion
109,10,bolt,0.650243691169,space,1,correct,target,NaN,targetNaN,bolt
110,10,coffeepot,0.183566882275,left,1,correct,path,1,path1,bolt
111,10,mosquito,0.100231888704,right,1,correct,path,2,path2,bolt
112,10,canoe,0.116926235612,left,1,correct,path,3,path3,bolt
113,10,domino,0.483660036232,left,1,correct,decision,1,decision1,bolt
114,10,ambulance,0.600738107227,left,1,correct,arm1,1,arm11,bolt
115,10,trunk,0.350266451482,right,1,correct,arm1,2,arm12,bolt
116,10,peach,0.116911746562,right,1,correct,arm1,3,arm13,bolt
117,10,garlic,0.516915912274,right,1,correct,decision,2,decision2,bolt
118,10,mug,0.566918055527,left,1,correct,arm2,1,arm21,bolt
119,10,branch,0.500301557593,right,1,correct,arm2,2,arm22,bolt
120,10,bolt,0.483575514983,left,1,correct,arm2,3,arm23,bolt
121,11,bolt,0.583628400695,space,1,correct,target,NaN,targetNaN,bolt
122,11,coffeepot,0.117002907675,left,1,correct,path,1,path1,bolt
123,11,mosquito,0.116951591801,right,1,correct,path,2,path2,bolt
124,11,canoe,0.0835459935479,left,1,correct,path,3,path3,bolt
125,11,domino,0.833718808368,right,1,correct,decision,1,decision1,bolt
126,11,ambulance,0.767028656788,left,1,correct,arm1,1,arm11,bolt
127,11,trunk,0.317074569408,right,1,correct,arm1,2,arm12,bolt
128,11,peach,0.133602169342,right,1,correct,arm1,3,arm13,bolt
129,11,garlic,0.400331683457,left,1,correct,decision,2,decision2,bolt
130,11,mug,0.817023857497,left,1,correct,arm2,1,arm21,bolt
131,11,branch,0.500254467595,right,1,correct,arm2,2,arm22,bolt
132,11,bolt,0.900255614892,left,1,correct,arm2,3,arm23,bolt
133,12,lion,0.55025842227,space,1,correct,target,NaN,targetNaN,lion
134,12,coffeepot,0.233606757596,left,1,correct,path,1,path1,lion
135,12,mosquito,0.116892125923,right,1,correct,path,2,path2,lion
136,12,canoe,0.316939034499,left,1,correct,path,3,path3,lion
137,12,goose,0.700366276316,left,1,correct,decision,1,decision1,lion
138,12,sailor,0.566904471722,left,1,correct,arm1,1,arm11,lion
139,12,cooker,0.866962006316,left,1,correct,arm1,2,arm12,lion
140,12,tooth,0.817025667988,right,1,correct,arm1,3,arm13,lion
141,12,crutches,0.516893272754,right,1,correct,decision,2,decision2,lion
142,12,stapler,0.550669856835,left,1,correct,arm2,1,arm21,lion
143,12,rose,0.383595075924,right,1,correct,arm2,2,arm22,lion
144,12,lion,0.500601304695,right,1,correct,arm2,3,arm23,lion
145,13,bolt,0.533713797107,space,-1,miss,target,NaN,targetNaN,bolt
146,13,coffeepot,0.433653063141,left,-1,miss,path,1,path1,bolt
147,13,mosquito,0.0502312546596,right,-1,miss,path,2,path2,bolt
148,13,canoe,0.116922613233,left,-1,miss,path,3,path3,bolt
149,13,goose,2.71695285989,left,-1,miss,decision,1,decision1,bolt
150,13,sailor,0.516947305296,left,-1,miss,arm1,1,arm11,bolt
151,13,cooker,0.383586624172,left,-1,miss,arm1,2,arm12,bolt
152,13,tooth,0.166895174421,right,-1,miss,arm1,3,arm13,bolt
153,13,crutches,1.70032371394,right,-1,miss,decision,2,decision2,bolt
154,13,stapler,0.50034985505,left,-1,miss,arm2,1,arm21,bolt
155,13,rose,0.433618047275,right,-1,miss,arm2,2,arm22,bolt
156,13,lion,0.333561840933,right,-1,miss,arm2,3,arm23,bolt
157,14,bolt,0.450289754663,space,1,correct,target,NaN,targetNaN,bolt
158,14,coffeepot,0.350263734814,left,1,correct,path,1,path1,bolt
159,14,mosquito,0.0669059809297,right,1,correct,path,2,path2,bolt
160,14,canoe,0.116908426397,left,1,correct,path,3,path3,bolt
161,14,domino,0.616733951028,right,1,correct,decision,1,decision1,bolt
162,14,ambulance,0.41695811227,left,1,correct,arm1,1,arm11,bolt
163,14,trunk,0.300238046795,right,1,correct,arm1,2,arm12,bolt
164,14,peach,0.183799616061,right,1,correct,arm1,3,arm13,bolt
165,14,garlic,0.566945222672,left,1,correct,decision,2,decision2,bolt
166,14,mug,1.43357065506,left,1,correct,arm2,1,arm21,bolt
167,14,branch,0.600243661087,right,1,correct,arm2,2,arm22,bolt
168,14,bolt,0.633577416651,left,1,correct,arm2,3,arm23,bolt
169,15,bolt,0.366962609813,space,1,correct,target,NaN,targetNaN,bolt
170,15,coffeepot,0.100254226476,left,1,correct,path,1,path1,bolt
171,15,mosquito,0.0335936569609,right,1,correct,path,2,path2,bolt
172,15,canoe,0.100212569814,left,1,correct,path,3,path3,bolt
173,15,domino,0.383602018468,left,1,correct,decision,1,decision1,bolt
174,15,ambulance,0.616947667673,left,1,correct,arm1,1,arm11,bolt
175,15,trunk,0.333595045842,right,1,correct,arm1,2,arm12,bolt
176,15,peach,0.166904833633,right,1,correct,arm1,3,arm13,bolt
177,15,garlic,0.533580073155,left,1,correct,decision,2,decision2,bolt
178,15,mug,0.666909059975,left,1,correct,arm2,1,arm21,bolt
179,15,branch,0.383655447979,right,1,correct,arm2,2,arm22,bolt
180,15,bolt,0.733645094093,left,1,correct,arm2,3,arm23,bolt
181,16,bolt,0.433605972677,space,-1,miss,target,NaN,targetNaN,bolt
182,16,coffeepot,0.100229775533,left,-1,miss,path,1,path1,bolt
183,16,mosquito,0.233605852351,right,-1,miss,path,2,path2,bolt
184,16,canoe,0.0835767830722,left,-1,miss,path,3,path3,bolt
185,16,domino,0.6503695664,left,-1,miss,decision,1,decision1,bolt
186,16,ambulance,1.90027191537,left,-1,miss,arm1,1,arm11,bolt
187,16,trunk,0.600257848389,right,-1,miss,arm1,2,arm12,bolt
188,16,peach,0.466904411558,right,-1,miss,arm1,3,arm13,bolt
189,16,crutches,2.80006327014,left,-1,miss,decision,2,decision2,bolt
190,16,stapler,1.20026062569,left,-1,miss,arm2,1,arm21,bolt
191,16,rose,0.533390807454,right,-1,miss,arm2,2,arm22,bolt
192,16,lion,1.61689876672,right,-1,miss,arm2,3,arm23,bolt
193,17,bolt,1.21691241069,space,1,correct,target,NaN,targetNaN,bolt
194,17,coffeepot,0.216874375939,left,1,correct,path,1,path1,bolt
195,17,mosquito,0.0835574637167,right,1,correct,path,2,path2,bolt
196,17,canoe,0.116904502269,left,1,correct,path,3,path3,bolt
197,17,domino,0.500254467595,left,1,correct,decision,1,decision1,bolt
198,17,ambulance,0.550214048475,left,1,correct,arm1,1,arm11,bolt
199,17,trunk,1.26690579997,right,1,correct,arm1,2,arm12,bolt
200,17,peach,0.166907550767,right,1,correct,arm1,3,arm13,bolt
201,17,garlic,0.58366583148,right,1,correct,decision,2,decision2,bolt
202,17,mug,0.483579137828,left,1,correct,arm2,1,arm21,bolt
203,17,branch,0.816912169103,right,1,correct,arm2,2,arm22,bolt
204,17,bolt,0.550255403388,left,1,correct,arm2,3,arm23,bolt
205,18,lion,0.750299897511,space,1,correct,target,NaN,targetNaN,lion
206,18,coffeepot,0.416921284981,left,1,correct,path,1,path1,lion
207,18,mosquito,0.0669572968036,right,1,correct,path,2,path2,lion
208,18,canoe,0.116915972903,left,1,correct,path,3,path3,lion
209,18,goose,0.733634227421,right,1,correct,decision,1,decision1,lion
210,18,sailor,1.90025259601,left,1,correct,arm1,1,arm11,lion
211,18,cooker,0.616963968147,left,1,correct,arm1,2,arm12,lion
212,18,tooth,0.683701813687,right,1,correct,arm1,3,arm13,lion
213,18,crutches,2.2335738549,right,1,correct,decision,2,decision2,lion
214,18,stapler,1.71701655211,left,1,correct,arm2,1,arm21,lion
215,18,rose,0.500326310284,right,1,correct,arm2,2,arm22,lion
216,18,lion,0.683600388467,right,1,correct,arm2,3,arm23,lion
217,19,lion,0.417202014942,space,1,correct,target,NaN,targetNaN,lion
218,19,coffeepot,0.383610168472,left,1,correct,path,1,path1,lion
219,19,mosquito,0.366941781249,right,1,correct,path,2,path2,lion
220,19,canoe,0.30030385172,left,1,correct,path,3,path3,lion
221,19,goose,0.983591513708,right,1,correct,decision,1,decision1,lion
222,19,sailor,0.833679868374,left,1,correct,arm1,1,arm11,lion
223,19,cooker,0.6172256805,left,1,correct,arm1,2,arm12,lion
224,19,tooth,0.333416646346,right,1,correct,arm1,3,arm13,lion
225,19,crutches,1.36693755537,left,1,correct,decision,2,decision2,lion
226,19,stapler,2.26709717885,left,1,correct,arm2,1,arm21,lion
227,19,rose,0.50035921298,right,1,correct,arm2,2,arm22,lion
228,19,lion,0.316958353855,right,1,correct,arm2,3,arm23,lion
229,20,lion,0.48368327925,space,1,correct,target,NaN,targetNaN,lion
230,20,coffeepot,0.116974533536,left,1,correct,path,1,path1,lion
231,20,mosquito,0.0170752936974,right,1,correct,path,2,path2,lion
232,20,canoe,0.0836945082992,left,1,correct,path,3,path3,lion
233,20,goose,0.383746609557,left,1,correct,decision,1,decision1,lion
234,20,sailor,0.43360899156,left,1,correct,arm1,1,arm11,lion
235,20,cooker,0.483737915754,left,1,correct,arm1,2,arm12,lion
236,20,tooth,0.183625141159,right,1,correct,arm1,3,arm13,lion
237,20,crutches,0.566849231254,right,1,correct,decision,2,decision2,lion
238,20,stapler,0.583614515606,left,1,correct,arm2,1,arm21,lion
239,20,rose,0.46699919505,right,1,correct,arm2,2,arm22,lion
240,20,lion,0.217114656698,right,1,correct,arm2,3,arm23,lion
