pic_index,trial_num,pic_name,rt,resp,feedback_code,feedback,segment,segment_index,pic_type,trial_target
1,1,lion,2.41688959021,space,1,correct,target,NaN,targetNaN,lion
2,1,coffeepot,2.56689481204,left,1,correct,path,1,path1,lion
3,1,mosquito,1.23357868474,right,1,correct,path,2,path2,lion
4,1,canoe,0.833576632198,left,1,correct,path,3,path3,lion
5,1,goose,2.5169062526,left,1,correct,decision,1,decision1,lion
6,1,sailor,1.70024100458,left,1,correct,arm1,1,arm11,lion
7,1,cooker,1.71691241022,left,1,correct,arm1,2,arm12,lion
8,1,tooth,0.63356866315,right,1,correct,arm1,3,arm13,lion
9,1,crutches,2.81693994021,left,1,correct,decision,2,decision2,lion
10,1,stapler,1.71690848656,left,1,correct,arm2,1,arm21,lion
11,1,rose,2.15022497578,right,1,correct,arm2,2,arm22,lion
12,1,lion,2.01689991355,right,1,correct,arm2,3,arm23,lion
13,2,bolt,3.41689713672,space,1,correct,target,NaN,targetNaN,bolt
14,2,coffeepot,0.933593596797,left,1,correct,path,1,path1,bolt
15,2,mosquito,0.733579590451,right,1,correct,path,2,path2,bolt
16,2,canoe,2.08355927514,left,1,correct,path,3,path3,bolt
17,2,domino,1.38357756799,left,1,correct,decision,1,decision1,bolt
18,2,ambulance,1.33362613758,left,1,correct,arm1,1,arm11,bolt
19,2,trunk,0.766926326323,right,1,correct,arm1,2,arm12,bolt
20,2,peach,1.16693079378,right,1,correct,arm1,3,arm13,bolt
21,2,garlic,1.23364267917,left,1,correct,decision,2,decision2,bolt
22,2,mug,1.93358363537,left,1,correct,arm2,1,arm21,bolt
23,2,branch,1.31702083861,right,1,correct,arm2,2,arm22,bolt
24,2,bolt,2.11693619704,left,1,correct,arm2,3,arm23,bolt
25,3,lion,0.866903143469,space,1,correct,target,NaN,targetNaN,lion
26,3,coffeepot,1.80031532282,left,1,correct,path,1,path1,lion
27,3,mosquito,0.733575364575,right,1,correct,path,2,path2,lion
28,3,canoe,3.6668873257,left,1,correct,path,3,path3,lion
29,3,goose,0.867018454242,right,1,correct,decision,1,decision1,lion
30,3,sailor,1.08358493354,left,1,correct,arm1,1,arm11,lion
31,3,cooker,0.866913708858,left,1,correct,arm1,2,arm12,lion
32,3,tooth,0.65023644641,right,1,correct,arm1,3,arm13,lion
33,3,crutches,1.58384966431,right,1,correct,decision,2,decision2,lion
34,3,stapler,3.66691932315,left,1,correct,arm2,1,arm21,lion
35,3,rose,5.43348704046,right,1,correct,arm2,2,arm22,lion
36,3,lion,0.900216674432,right,1,correct,arm2,3,arm23,lion
37,4,bolt,1.61691385973,space,-1,miss,target,NaN,targetNaN,bolt
38,4,coffeepot,0.750392870512,left,-1,miss,path,1,path1,bolt
39,4,mosquito,0.983615964651,right,-1,miss,path,2,path2,bolt
40,4,canoe,1.76689825347,left,-1,miss,path,3,path3,bolt
41,4,goose,2.41690619243,right,-1,miss,decision,1,decision1,bolt
42,4,sailor,0.633606999181,left,-1,miss,arm1,1,arm11,bolt
43,4,cooker,1.18370634131,left,-1,miss,arm1,2,arm12,bolt
44,4,tooth,0.483869224321,right,-1,miss,arm1,3,arm13,bolt
45,4,crutches,0.783573884983,left,-1,miss,decision,2,decision2,bolt
46,4,stapler,1.01712389337,left,-1,miss,arm2,1,arm21,bolt
47,4,rose,1.28358867625,right,-1,miss,arm2,2,arm22,bolt
48,4,lion,0.950473889243,right,-1,miss,arm2,3,arm23,bolt
49,5,bolt,0.866978910286,space,1,correct,target,NaN,targetNaN,bolt
50,5,coffeepot,0.516916214023,left,1,correct,path,1,path1,bolt
51,5,mosquito,0.600240038708,right,1,correct,path,2,path2,bolt
52,5,canoe,1.21692539053,left,1,correct,path,3,path3,bolt
53,5,domino,0.916949358303,left,1,correct,decision,1,decision1,bolt
54,5,ambulance,2.35022992641,left,1,correct,arm1,1,arm11,bolt
55,5,trunk,0.583644399419,right,1,correct,arm1,2,arm12,bolt
56,5,peach,1.10024335934,right,1,correct,arm1,3,arm13,bolt
57,5,garlic,1.03338537365,right,1,correct,decision,2,decision2,bolt
58,5,mug,1.8335705949,left,1,correct,arm2,1,arm21,bolt
59,5,branch,0.666936227586,right,1,correct,arm2,2,arm22,bolt
60,5,bolt,1.10025603743,left,1,correct,arm2,3,arm23,bolt
61,6,lion,1.06692560203,space,1,correct,target,NaN,targetNaN,lion
62,6,coffeepot,0.533587016165,left,1,correct,path,1,path1,lion
63,6,mosquito,0.500230922364,right,1,correct,path,2,path2,lion
64,6,canoe,1.83357783966,left,1,correct,path,3,path3,lion
65,6,goose,1.13360005617,left,1,correct,decision,1,decision1,lion
66,6,sailor,0.717021381948,left,1,correct,arm1,1,arm11,lion
67,6,cooker,1.56694824109,left,1,correct,arm1,2,arm12,lion
68,6,tooth,0.40025018109,right,1,correct,arm1,3,arm13,lion
69,6,crutches,0.883579077665,right,1,correct,decision,2,decision2,lion
70,6,stapler,0.883581793867,left,1,correct,arm2,1,arm21,lion
71,6,rose,0.850060583092,right,1,correct,arm2,2,arm22,lion
72,6,lion,0.650276895612,right,1,correct,arm2,3,arm23,lion
73,7,bolt,0.433608689345,space,1,correct,target,NaN,targetNaN,bolt
74,7,coffeepot,1.03359154426,left,1,correct,path,1,path1,bolt
75,7,mosquito,0.450346504804,right,1,correct,path,2,path2,bolt
76,7,canoe,0.350229926407,left,1,correct,path,3,path3,bolt
77,7,domino,1.00013432745,left,1,correct,decision,1,decision1,bolt
78,7,ambulance,0.916971393861,left,1,correct,arm1,1,arm11,bolt
79,7,trunk,0.450339561794,right,1,correct,arm1,2,arm12,bolt
80,7,peach,1.00026714616,right,1,correct,arm1,3,arm13,bolt
81,7,garlic,0.866931216791,left,1,correct,decision,2,decision2,bolt
82,7,mug,1.05023397133,left,1,correct,arm2,1,arm21,bolt
83,7,branch,0.516923156567,right,1,correct,arm2,2,arm22,bolt
84,7,bolt,0.916918266565,left,1,correct,arm2,3,arm23,bolt
85,8,lion,0.716702014674,space,1,correct,target,NaN,targetNaN,lion
86,8,coffeepot,0.500301557593,left,1,correct,path,1,path1,lion
87,8,mosquito,0.533575243782,right,1,correct,path,2,path2,lion
88,8,canoe,5.20023496728,left,1,correct,path,3,path3,lion
89,8,goose,2.63362752553,left,1,correct,decision,1,decision1,lion
90,8,sailor,1.18336825818,left,1,correct,arm1,1,arm11,lion
91,8,cooker,3.13351644157,left,1,correct,arm1,2,arm12,lion
92,8,tooth,0.58358765021,right,1,correct,arm1,3,arm13,lion
93,8,crutches,0.533651312348,left,1,correct,decision,2,decision2,lion
94,8,stapler,1.45029941434,left,1,correct,arm2,1,arm21,lion
95,8,rose,0.783627012745,right,1,correct,arm2,2,arm22,lion
96,8,lion,0.600295580924,right,1,correct,arm2,3,arm23,lion
97,9,lion,1.03359003505,space,1,correct,target,NaN,targetNaN,lion
98,9,coffeepot,1.21690939181,left,1,correct,path,1,path1,lion
99,9,mosquito,0.500312726479,right,1,correct,path,2,path2,lion
100,9,canoe,0.80025947839,left,1,correct,path,3,path3,lion
101,9,goose,0.733678902499,left,1,correct,decision,1,decision1,lion
102,9,sailor,0.700261833146,left,1,correct,arm1,1,arm11,lion
103,9,cooker,3.50020949077,left,1,correct,arm1,2,arm12,lion
104,9,tooth,0.483580043539,right,1,correct,arm1,3,arm13,lion
105,9,crutches,0.717024098616,right,1,correct,decision,2,decision2,lion
106,9,stapler,0.633593717124,left,1,correct,arm2,1,arm21,lion
107,9,rose,0.416718435939,right,1,correct,arm2,2,arm22,lion
108,9,lion,0.28357116878,right,1,correct,arm2,3,arm23,lion
109,10,bolt,0.666962187272,space,1,correct,target,NaN,targetNaN,bolt
110,10,coffeepot,5.56687398348,left,1,correct,path,1,path1,bolt
111,10,mosquito,0.450241155922,right,1,correct,path,2,path2,bolt
112,10,canoe,0.833669302985,left,1,correct,path,3,path3,bolt
113,10,domino,1.30025132792,left,1,correct,decision,1,decision1,bolt
114,10,ambulance,0.800313209649,left,1,correct,arm1,1,arm11,bolt
115,10,trunk,0.516981717665,right,1,correct,arm1,2,arm12,bolt
116,10,peach,0.700244626962,right,1,correct,arm1,3,arm13,bolt
117,10,garlic,0.800340376794,right,1,correct,decision,2,decision2,bolt
118,10,mug,1.08386354987,left,1,correct,arm2,1,arm21,bolt
119,10,branch,0.466974744573,right,1,correct,arm2,2,arm22,bolt
120,10,bolt,0.916910116561,left,1,correct,arm2,3,arm23,bolt
121,11,bolt,0.733594381716,space,1,correct,target,NaN,targetNaN,bolt
122,11,coffeepot,0.666922643315,left,1,correct,path,1,path1,bolt
123,11,mosquito,0.500278012827,right,1,correct,path,2,path2,bolt
124,11,canoe,0.800446631387,left,1,correct,path,3,path3,bolt
125,11,domino,2.10033361521,right,1,correct,decision,1,decision1,bolt
126,11,ambulance,0.716964934021,left,1,correct,arm1,1,arm11,bolt
127,11,trunk,0.733616417274,right,1,correct,arm1,2,arm12,bolt
128,11,peach,0.633389961906,right,1,correct,arm1,3,arm13,bolt
129,11,garlic,1.30032015219,left,1,correct,decision,2,decision2,bolt
130,11,mug,0.683584691957,left,1,correct,arm2,1,arm21,bolt
131,11,branch,0.500079992693,right,1,correct,arm2,2,arm22,bolt
132,11,bolt,1.06691896124,left,1,correct,arm2,3,arm23,bolt
133,12,bolt,1.36693242425,space,1,correct,target,NaN,targetNaN,bolt
134,12,coffeepot,2.31692303624,left,1,correct,path,1,path1,bolt
135,12,mosquito,0.516973868944,right,1,correct,path,2,path2,bolt
136,12,canoe,0.800262195058,left,1,correct,path,3,path3,bolt
137,12,domino,1.15027236799,right,1,correct,decision,1,decision1,bolt
138,12,ambulance,0.983595136087,left,1,correct,arm1,1,arm11,bolt
139,12,trunk,1.20029775426,right,1,correct,arm1,2,arm12,bolt
140,12,peach,0.533683007583,right,1,correct,arm1,3,arm13,bolt
141,12,garlic,0.716986366548,left,1,correct,decision,2,decision2,bolt
142,12,mug,2.33356123744,left,1,correct,arm2,1,arm21,bolt
143,12,branch,1.40025440697,right,1,correct,arm2,2,arm22,bolt
144,12,bolt,1.98355287593,left,1,correct,arm2,3,arm23,bolt
145,13,bolt,0.500278616324,space,1,correct,target,NaN,targetNaN,bolt
146,13,coffeepot,4.58351460006,left,1,correct,path,1,path1,bolt
147,13,mosquito,0.533628068864,right,1,correct,path,2,path2,bolt
148,13,canoe,1.33358598966,left,1,correct,path,3,path3,bolt
149,13,domino,0.733610379975,left,1,correct,decision,1,decision1,bolt
150,13,ambulance,1.93361472664,left,1,correct,arm1,1,arm11,bolt
151,13,trunk,0.483592419419,right,1,correct,arm1,2,arm12,bolt
152,13,peach,4.90031749569,right,1,correct,arm1,3,arm13,bolt
153,13,garlic,0.850822778884,right,1,correct,decision,2,decision2,bolt
154,13,mug,0.800269137602,left,1,correct,arm2,1,arm21,bolt
155,13,branch,0.567090115044,right,1,correct,arm2,2,arm22,bolt
156,13,bolt,1.1169860037,left,1,correct,arm2,3,arm23,bolt
157,14,bolt,0.65033092862,space,1,correct,target,NaN,targetNaN,bolt
158,14,coffeepot,0.433605067432,left,1,correct,path,1,path1,bolt
159,14,mosquito,0.533585808706,right,1,correct,path,2,path2,bolt
160,14,canoe,1.08364289068,left,1,correct,path,3,path3,bolt
161,14,domino,0.850296033546,left,1,correct,decision,1,decision1,bolt
162,14,ambulance,2.90023901267,left,1,correct,arm1,1,arm11,bolt
163,14,trunk,0.650531967636,right,1,correct,arm1,2,arm12,bolt
164,14,peach,0.333554898389,right,1,correct,arm1,3,arm13,bolt
165,14,garlic,0.766984585207,right,1,correct,decision,2,decision2,bolt
166,14,mug,0.766957116313,left,1,correct,arm2,1,arm21,bolt
167,14,branch,0.450431025121,right,1,correct,arm2,2,arm22,bolt
168,14,bolt,0.650247011799,left,1,correct,arm2,3,arm23,bolt
169,15,bolt,0.633694236632,space,1,correct,target,NaN,targetNaN,bolt
170,15,coffeepot,0.433581823949,left,1,correct,path,1,path1,bolt
171,15,mosquito,0.400259237271,right,1,correct,path,2,path2,bolt
172,15,canoe,0.33357512299,left,1,correct,path,3,path3,bolt
173,15,domino,0.683610652108,left,1,correct,decision,1,decision1,bolt
174,15,ambulance,0.683575937524,left,1,correct,arm1,1,arm11,bolt
175,15,trunk,0.583878642879,right,1,correct,arm1,2,arm12,bolt
176,15,peach,0.483617776074,right,1,correct,arm1,3,arm13,bolt
177,15,garlic,1.18366196798,right,1,correct,decision,2,decision2,bolt
178,15,mug,2.25028842688,left,1,correct,arm2,1,arm21,bolt
179,15,branch,0.550238801166,right,1,correct,arm2,2,arm22,bolt
180,15,bolt,0.200291415211,left,1,correct,arm2,3,arm23,bolt
181,16,bolt,0.500255373307,space,1,correct,target,NaN,targetNaN,bolt
182,16,coffeepot,0.433581220452,left,1,correct,path,1,path1,bolt
183,16,mosquito,0.433705284726,right,1,correct,path,2,path2,bolt
184,16,canoe,0.416962639894,left,1,correct,path,3,path3,bolt
185,16,domino,0.833662963938,right,1,correct,decision,1,decision1,bolt
186,16,ambulance,2.96699919552,left,1,correct,arm1,1,arm11,bolt
187,16,trunk,0.716910297517,right,1,correct,arm1,2,arm12,bolt
188,16,peach,0.833580556326,right,1,correct,arm1,3,arm13,bolt
189,16,garlic,0.88360050926,left,1,correct,decision,2,decision2,bolt
190,16,mug,0.733960838988,left,1,correct,arm2,1,arm21,bolt
191,16,branch,0.566937676631,right,1,correct,arm2,2,arm22,bolt
192,16,bolt,0.516925873701,left,1,correct,arm2,3,arm23,bolt
193,17,lion,0.500265032984,space,1,correct,target,NaN,targetNaN,lion
194,17,coffeepot,0.367125311866,left,1,correct,path,1,path1,lion
195,17,mosquito,0.333589612041,right,1,correct,path,2,path2,lion
196,17,canoe,0.26694081584,left,1,correct,path,3,path3,lion
197,17,goose,0.466990742832,left,1,correct,decision,1,decision1,lion
198,17,sailor,0.600272639655,left,1,correct,arm1,1,arm11,lion
199,17,cooker,0.817083323374,left,1,correct,arm1,2,arm12,lion
200,17,tooth,0.366914915852,right,1,correct,arm1,3,arm13,lion
201,17,crutches,0.65030466672,left,1,correct,decision,2,decision2,lion
202,17,stapler,0.683622424491,left,1,correct,arm2,1,arm21,lion
203,17,rose,0.683601898141,right,1,correct,arm2,2,arm22,lion
204,17,lion,0.850078091025,right,1,correct,arm2,3,arm23,lion
205,18,lion,0.816938128788,space,1,correct,target,NaN,targetNaN,lion
206,18,coffeepot,0.600444397889,left,1,correct,path,1,path1,lion
207,18,mosquito,0.416911625769,right,1,correct,path,2,path2,lion
208,18,canoe,0.433585446794,left,1,correct,path,3,path3,lion
209,18,goose,0.683676457033,left,1,correct,decision,1,decision1,lion
210,18,sailor,0.533587016165,left,1,correct,arm1,1,arm11,lion
211,18,cooker,0.533583092038,left,1,correct,arm1,2,arm12,lion
212,18,tooth,0.250246770214,right,1,correct,arm1,3,arm13,lion
213,18,crutches,0.783667763695,right,1,correct,decision,2,decision2,lion
214,18,stapler,0.633870220743,left,1,correct,arm2,1,arm21,lion
215,18,rose,0.416993731633,right,1,correct,arm2,2,arm22,lion
216,18,lion,0.416926718783,right,1,correct,arm2,3,arm23,lion
217,19,bolt,0.650266028941,space,-1,miss,target,NaN,targetNaN,bolt
218,19,coffeepot,0.266937192995,left,-1,miss,path,1,path1,bolt
219,19,mosquito,0.433646120597,right,-1,miss,path,2,path2,bolt
220,19,canoe,0.233562988229,left,-1,miss,path,3,path3,bolt
221,19,domino,0.666966413613,left,-1,miss,decision,1,decision1,bolt
222,19,ambulance,1.03363652108,left,-1,miss,arm1,1,arm11,bolt
223,19,trunk,0.600259659812,right,-1,miss,arm1,2,arm12,bolt
224,19,peach,1.133580436,right,-1,miss,arm1,3,arm13,bolt
225,19,crutches,1.48359755101,left,-1,miss,decision,2,decision2,bolt
226,19,stapler,4.06687851204,left,-1,miss,arm2,1,arm21,bolt
227,19,rose,0.700314960442,right,-1,miss,arm2,2,arm22,bolt
228,19,lion,2.15024248417,right,-1,miss,arm2,3,arm23,bolt
229,20,lion,0.583667944651,space,1,correct,target,NaN,targetNaN,lion
230,20,coffeepot,0.483645244967,left,1,correct,path,1,path1,lion
231,20,mosquito,0.950250815134,right,1,correct,path,2,path2,lion
232,20,canoe,2.31691911165,left,1,correct,path,3,path3,lion
233,20,goose,1.00027378649,left,1,correct,decision,1,decision1,lion
234,20,sailor,0.600373460911,left,1,correct,arm1,1,arm11,lion
235,20,cooker,0.566937977914,left,1,correct,arm1,2,arm12,lion
236,20,tooth,0.433641290292,right,1,correct,arm1,3,arm13,lion
237,20,crutches,1.4003117606,left,1,correct,decision,2,decision2,lion
238,20,stapler,1.21693474846,left,1,correct,arm2,1,arm21,lion
239,20,rose,0.55025842227,right,1,correct,arm2,2,arm22,lion
240,20,lion,1.15037198132,right,1,correct,arm2,3,arm23,lion
241,21,bolt,0.53361991886,space,1,correct,target,NaN,targetNaN,bolt
242,21,coffeepot,0.466972933616,left,1,correct,path,1,path1,bolt
243,21,mosquito,0.583585234825,right,1,correct,path,2,path2,bolt
244,21,canoe,0.483585778624,left,1,correct,path,3,path3,bolt
245,21,domino,0.466923126951,right,1,correct,decision,1,decision1,bolt
246,21,ambulance,0.883633713704,left,1,correct,arm1,1,arm11,bolt
247,21,trunk,0.600557293277,right,1,correct,arm1,2,arm12,bolt
248,21,peach,0.700045097619,right,1,correct,arm1,3,arm13,bolt
249,21,garlic,0.950449740514,right,1,correct,decision,2,decision2,bolt
250,21,mug,0.633565946482,left,1,correct,arm2,1,arm21,bolt
251,21,branch,0.466984705999,right,1,correct,arm2,2,arm22,bolt
252,21,bolt,0.650252746884,left,1,correct,arm2,3,arm23,bolt
253,22,bolt,0.600053489674,space,-1,miss,target,NaN,targetNaN,bolt
254,22,coffeepot,0.416977732908,left,-1,miss,path,1,path1,bolt
255,22,mosquito,0.700129618403,right,-1,miss,path,2,path2,bolt
256,22,canoe,0.30033343425,left,-1,miss,path,3,path3,bolt
257,22,domino,2.31698099338,right,-1,miss,decision,1,decision1,bolt
258,22,ambulance,0.600286525209,left,-1,miss,arm1,1,arm11,bolt
259,22,trunk,0.500342912506,right,-1,miss,arm1,2,arm12,bolt
260,22,peach,0.266966172028,right,-1,miss,arm1,3,arm13,bolt
261,22,crutches,0.683911605738,right,-1,miss,decision,2,decision2,bolt
262,22,stapler,0.733672864735,left,-1,miss,arm2,1,arm21,bolt
263,22,rose,0.716945615131,right,-1,miss,arm2,2,arm22,bolt
264,22,lion,0.533803147264,right,-1,miss,arm2,3,arm23,bolt
265,23,lion,1.21697791433,space,1,correct,target,NaN,targetNaN,lion
266,23,coffeepot,0.516918326728,left,1,correct,path,1,path1,lion
267,23,mosquito,0.183568391483,right,1,correct,path,2,path2,lion
268,23,canoe,0.16698060045,left,1,correct,path,3,path3,lion
269,23,goose,0.467106657568,left,1,correct,decision,1,decision1,lion
270,23,sailor,0.583741296548,left,1,correct,arm1,1,arm11,lion
271,23,cooker,0.433585446328,left,1,correct,arm1,2,arm12,lion
272,23,tooth,0.316940845922,right,1,correct,arm1,3,arm13,lion
273,23,crutches,1.03364225663,left,1,correct,decision,2,decision2,lion
274,23,stapler,0.650250633713,left,1,correct,arm2,1,arm21,lion
275,23,rose,0.650068612769,right,1,correct,arm2,2,arm22,lion
276,23,lion,0.266905799974,right,1,correct,arm2,3,arm23,lion
277,24,lion,0.583628703374,space,1,correct,target,NaN,targetNaN,lion
278,24,coffeepot,0.183569297194,left,1,correct,path,1,path1,lion
279,24,mosquito,0.300227179658,right,1,correct,path,2,path2,lion
280,24,canoe,0.166915097274,left,1,correct,path,3,path3,lion
281,24,goose,0.483790137805,left,1,correct,decision,1,decision1,lion
282,24,sailor,0.633377887774,left,1,correct,arm1,1,arm11,lion
283,24,cooker,0.616919594817,left,1,correct,arm1,2,arm12,lion
284,24,tooth,0.633594622836,right,1,correct,arm1,3,arm13,lion
285,24,crutches,3.41686453577,right,1,correct,decision,2,decision2,lion
286,24,stapler,0.483652791474,left,1,correct,arm2,1,arm21,lion
287,24,rose,0.400244143791,right,1,correct,arm2,2,arm22,lion
288,24,lion,0.183551789261,right,1,correct,arm2,3,arm23,lion
289,25,lion,0.500259901397,space,1,correct,target,NaN,targetNaN,lion
290,25,coffeepot,0.31689345371,left,1,correct,path,1,path1,lion
291,25,mosquito,0.133600358386,right,1,correct,path,2,path2,lion
292,25,canoe,0.133566550445,left,1,correct,path,3,path3,lion
293,25,goose,1.10026509315,right,1,correct,decision,1,decision1,lion
294,25,sailor,0.500291898381,left,1,correct,arm1,1,arm11,lion
295,25,cooker,1.61693921592,left,1,correct,arm1,2,arm12,lion
296,25,tooth,0.583606667351,right,1,correct,arm1,3,arm13,lion
297,25,crutches,1.15028836671,left,1,correct,decision,2,decision2,lion
298,25,stapler,4.90001986222,left,1,correct,arm2,1,arm21,lion
299,25,rose,0.616926537827,right,1,correct,arm2,2,arm22,lion
300,25,lion,0.283586261794,right,1,correct,arm2,3,arm23,lion
301,26,lion,0.550363167655,space,1,correct,target,NaN,targetNaN,lion
302,26,coffeepot,0.183606123552,left,1,correct,path,1,path1,lion
303,26,mosquito,0.133579832036,right,1,correct,path,2,path2,lion
304,26,canoe,0.133687595837,left,1,correct,path,3,path3,lion
305,26,goose,0.650497857481,right,1,correct,decision,1,decision1,lion
306,26,sailor,0.73361943569,left,1,correct,arm1,1,arm11,lion
307,26,cooker,1.33360349759,left,1,correct,arm1,2,arm12,lion
308,26,tooth,0.400307534728,right,1,correct,arm1,3,arm13,lion
309,26,crutches,0.733624869492,right,1,correct,decision,2,decision2,lion
310,26,stapler,0.633597037755,left,1,correct,arm2,1,arm21,lion
311,26,rose,0.350238982588,right,1,correct,arm2,2,arm22,lion
312,26,lion,0.100267508067,right,1,correct,arm2,3,arm23,lion
313,27,bolt,0.583602441475,space,1,correct,target,NaN,targetNaN,bolt
314,27,coffeepot,0.45030514989,left,1,correct,path,1,path1,bolt
315,27,mosquito,0.333688320126,right,1,correct,path,2,path2,bolt
316,27,canoe,0.283590185922,left,1,correct,path,3,path3,bolt
317,27,domino,1.11695581814,left,1,correct,decision,1,decision1,bolt
318,27,ambulance,1.76686806744,left,1,correct,arm1,1,arm11,bolt
319,27,trunk,0.683612463064,right,1,correct,arm1,2,arm12,bolt
320,27,peach,0.833603799809,right,1,correct,arm1,3,arm13,bolt
321,27,garlic,1.81689435942,left,1,correct,decision,2,decision2,bolt
322,27,mug,0.716989384498,left,1,correct,arm2,1,arm21,bolt
323,27,branch,0.366936649662,right,1,correct,arm2,2,arm22,bolt
324,27,bolt,0.683370975312,left,1,correct,arm2,3,arm23,bolt
325,28,lion,0.600258150604,space,1,correct,target,NaN,targetNaN,lion
326,28,coffeepot,0.233586533461,left,1,correct,path,1,path1,lion
327,28,mosquito,0.183579258621,right,1,correct,path,2,path2,lion
328,28,canoe,0.183583786245,left,1,correct,path,3,path3,lion
329,28,goose,0.883574850857,right,1,correct,decision,1,decision1,lion
330,28,sailor,0.716936861165,left,1,correct,arm1,1,arm11,lion
331,28,cooker,0.66721363645,left,1,correct,arm1,2,arm12,lion
332,28,tooth,0.383572436403,right,1,correct,arm1,3,arm13,lion
333,28,crutches,0.783649350516,left,1,correct,decision,2,decision2,lion
334,28,stapler,1.21690516593,left,1,correct,arm2,1,arm21,lion
335,28,rose,0.600514429156,right,1,correct,arm2,2,arm22,lion
336,28,lion,0.783552453388,right,1,correct,arm2,3,arm23,lion
337,29,lion,0.50027046632,space,1,correct,target,NaN,targetNaN,lion
338,29,coffeepot,0.416921888944,left,1,correct,path,1,path1,lion
339,29,mosquito,0.0835716514848,right,1,correct,path,2,path2,lion
340,29,canoe,0.133561116643,left,1,correct,path,3,path3,lion
341,29,goose,0.567050873302,left,1,correct,decision,1,decision1,lion
342,29,sailor,0.616919594817,left,1,correct,arm1,1,arm11,lion
343,29,cooker,0.433606274892,left,1,correct,arm1,2,arm12,lion
344,29,tooth,0.366980117746,right,1,correct,arm1,3,arm13,lion
345,29,crutches,0.683674042113,right,1,correct,decision,2,decision2,lion
346,29,stapler,1.23355513997,left,1,correct,arm2,1,arm21,lion
347,29,rose,0.533665801398,right,1,correct,arm2,2,arm22,lion
348,29,lion,0.483597249258,right,1,correct,arm2,3,arm23,lion
349,30,lion,0.433588766959,space,1,correct,target,NaN,targetNaN,lion
350,30,coffeepot,0.366933631245,left,1,correct,path,1,path1,lion
351,30,mosquito,0.0502505735494,right,1,correct,path,2,path2,lion
352,30,canoe,0.150346625596,left,1,correct,path,3,path3,lion
353,30,goose,2.16690815473,right,1,correct,decision,1,decision1,lion
354,30,sailor,0.566924394574,left,1,correct,arm1,1,arm11,lion
355,30,cooker,0.516975982115,left,1,correct,arm1,2,arm12,lion
356,30,tooth,0.266911837272,right,1,correct,arm1,3,arm13,lion
357,30,crutches,0.683651403058,left,1,correct,decision,2,decision2,lion
358,30,stapler,0.650272971485,left,1,correct,arm2,1,arm21,lion
359,30,rose,0.500259599648,right,1,correct,arm2,2,arm22,lion
360,30,lion,0.750250090845,right,1,correct,arm2,3,arm23,lion
361,31,lion,0.583535428159,space,1,correct,target,NaN,targetNaN,lion
362,31,coffeepot,0.78357237624,left,1,correct,path,1,path1,lion
363,31,mosquito,0.500234242994,right,1,correct,path,2,path2,lion
364,31,canoe,0.516930099577,left,1,correct,path,3,path3,lion
365,31,goose,2.50063390518,left,1,correct,decision,1,decision1,lion
366,31,sailor,0.550259025767,left,1,correct,arm1,1,arm11,lion
367,31,cooker,0.51691561006,left,1,correct,arm1,2,arm12,lion
368,31,tooth,0.183558731806,right,1,correct,arm1,3,arm13,lion
369,31,crutches,0.683608538937,left,1,correct,decision,2,decision2,lion
370,31,stapler,0.733576873783,left,1,correct,arm2,1,arm21,lion
371,31,rose,0.417015163228,right,1,correct,arm2,2,arm22,lion
372,31,lion,0.833764388692,right,1,correct,arm2,3,arm23,lion
373,32,bolt,0.717017457355,space,1,correct,target,NaN,targetNaN,bolt
374,32,coffeepot,0.45066436287,left,1,correct,path,1,path1,bolt
375,32,mosquito,0.500254165847,right,1,correct,path,2,path2,bolt
376,32,canoe,0.400344059337,left,1,correct,path,3,path3,bolt
377,32,domino,0.80031532282,left,1,correct,decision,1,decision1,bolt
378,32,ambulance,0.633611225523,left,1,correct,arm1,1,arm11,bolt
379,32,trunk,0.483711352106,right,1,correct,arm1,2,arm12,bolt
380,32,peach,0.516926477198,right,1,correct,arm1,3,arm13,bolt
381,32,garlic,1.26699213171,left,1,correct,decision,2,decision2,bolt
382,32,mug,1.16691509727,left,1,correct,arm2,1,arm21,bolt
383,32,branch,0.333674736787,right,1,correct,arm2,2,arm22,bolt
384,32,bolt,2.38355704118,left,1,correct,arm2,3,arm23,bolt
385,33,lion,0.833601384424,space,-1,miss,target,NaN,targetNaN,lion
386,33,coffeepot,3.18367434433,left,-1,miss,path,1,path1,lion
387,33,mosquito,0.833550370298,right,-1,miss,path,2,path2,lion
388,33,canoe,0.113526994362,left,-1,miss,path,3,path3,lion
389,33,goose,0.500286464579,left,-1,miss,decision,1,decision1,lion
390,33,sailor,0.700445062015,left,-1,miss,arm1,1,arm11,lion
391,33,cooker,0.483581854496,left,-1,miss,arm1,2,arm12,lion
392,33,tooth,0.400288215373,right,-1,miss,arm1,3,arm13,lion
393,33,garlic,0.0170475230552,right,-1,miss,decision,2,decision2,lion
394,33,mug,2.20035299473,left,-1,miss,arm2,1,arm21,lion
395,33,branch,1.33357180236,right,-1,miss,arm2,2,arm22,lion
396,33,bolt,0.600249396171,left,-1,miss,arm2,3,arm23,lion
397,34,lion,0.483704107348,space,1,correct,target,NaN,targetNaN,lion
398,34,coffeepot,0.100221625064,left,1,correct,path,1,path1,lion
399,34,mosquito,0.200058077928,right,1,correct,path,2,path2,lion
400,34,canoe,0.0667236577719,left,1,correct,path,3,path3,lion
401,34,goose,0.433609897271,left,1,correct,decision,1,decision1,lion
402,34,sailor,0.566964239813,left,1,correct,arm1,1,arm11,lion
403,34,cooker,0.550258724019,left,1,correct,arm1,2,arm12,lion
404,34,tooth,0.183561146725,right,1,correct,arm1,3,arm13,lion
405,34,crutches,0.683663779404,right,1,correct,decision,2,decision2,lion
406,34,stapler,0.716951954179,left,1,correct,arm2,1,arm21,lion
407,34,rose,1.36691763299,right,1,correct,arm2,2,arm22,lion
408,34,lion,0.333651795518,right,1,correct,arm2,3,arm23,lion
409,35,bolt,0.550257818308,space,-1,miss,target,NaN,targetNaN,bolt
410,35,coffeepot,0.183575032745,left,-1,miss,path,1,path1,bolt
411,35,mosquito,0.133623601403,right,-1,miss,path,2,path2,bolt
412,35,canoe,0.133568059653,left,-1,miss,path,3,path3,bolt
413,35,domino,0.650310704019,right,-1,miss,decision,1,decision1,bolt
414,35,ambulance,1.56694763759,left,-1,miss,arm1,1,arm11,bolt
415,35,trunk,2.50026714616,right,-1,miss,arm1,2,arm12,bolt
416,35,peach,0.583587649744,right,-1,miss,arm1,3,arm13,bolt
417,35,crutches,1.85022630403,left,-1,miss,decision,2,decision2,bolt
418,35,stapler,0.90026165219,left,-1,miss,arm2,1,arm21,bolt
419,35,rose,0.583602139261,right,-1,miss,arm2,2,arm22,bolt
420,35,lion,0.300229594577,right,-1,miss,arm2,3,arm23,bolt
421,36,bolt,0.533609051723,space,1,correct,target,NaN,targetNaN,bolt
422,36,coffeepot,0.133656504098,left,1,correct,path,1,path1,bolt
423,36,mosquito,0.150033596903,right,1,correct,path,2,path2,bolt
424,36,canoe,0.133565342519,left,1,correct,path,3,path3,bolt
425,36,domino,0.750832076184,left,1,correct,decision,1,decision1,bolt
426,36,ambulance,0.666889439337,left,1,correct,arm1,1,arm11,bolt
427,36,trunk,0.616940121632,right,1,correct,arm1,2,arm12,bolt
428,36,peach,0.433628008701,right,1,correct,arm1,3,arm13,bolt
429,36,garlic,0.500282842666,right,1,correct,decision,2,decision2,bolt
430,36,mug,0.566934053786,left,1,correct,arm2,1,arm21,bolt
431,36,branch,0.566916848067,right,1,correct,arm2,2,arm22,bolt
432,36,bolt,1.20025066426,left,1,correct,arm2,3,arm23,bolt
433,37,lion,0.266924213152,space,1,correct,target,NaN,targetNaN,lion
434,37,coffeepot,0.133612432983,left,1,correct,path,1,path1,lion
435,37,mosquito,0.0837397873402,right,1,correct,path,2,path2,lion
436,37,canoe,0.0670656645671,left,1,correct,path,3,path3,lion
437,37,goose,0.350452699233,left,1,correct,decision,1,decision1,lion
438,37,sailor,0.600269620772,left,1,correct,arm1,1,arm11,lion
439,37,cooker,0.566922281403,left,1,correct,arm1,2,arm12,lion
440,37,tooth,0.167000221554,right,1,correct,arm1,3,arm13,lion
441,37,crutches,0.80049915472,left,1,correct,decision,2,decision2,lion
442,37,stapler,0.816943864338,left,1,correct,arm2,1,arm21,lion
443,37,rose,1.05025932798,right,1,correct,arm2,2,arm22,lion
444,37,lion,1.76690640347,right,1,correct,arm2,3,arm23,lion
445,38,bolt,2.2170008556,space,1,correct,target,NaN,targetNaN,bolt
446,38,coffeepot,0.516925571486,left,1,correct,path,1,path1,bolt
447,38,mosquito,0.133555985056,right,1,correct,path,2,path2,bolt
448,38,canoe,0.133578624576,left,1,correct,path,3,path3,bolt
449,38,domino,2.08375427686,left,1,correct,decision,1,decision1,bolt
450,38,ambulance,0.60027928045,left,1,correct,arm1,1,arm11,bolt
451,38,trunk,0.650252445135,right,1,correct,arm1,2,arm12,bolt
452,38,peach,3.20021957299,right,1,correct,arm1,3,arm13,bolt
453,38,garlic,0.616929254495,left,1,correct,decision,2,decision2,bolt
454,38,mug,0.733606758062,left,1,correct,arm2,1,arm21,bolt
455,38,branch,0.816957448144,right,1,correct,arm2,2,arm22,bolt
456,38,bolt,0.450239947997,left,1,correct,arm2,3,arm23,bolt
457,39,lion,0.38359477371,space,1,correct,target,NaN,targetNaN,lion
458,39,coffeepot,0.150697688106,left,1,correct,path,1,path1,lion
459,39,mosquito,0.100218002684,right,1,correct,path,2,path2,lion
460,39,canoe,0.100256943144,left,1,correct,path,3,path3,lion
461,39,goose,0.283714551944,left,1,correct,decision,1,decision1,lion
462,39,sailor,0.550332981162,left,1,correct,arm1,1,arm11,lion
463,39,cooker,0.433595709968,left,1,correct,arm1,2,arm12,lion
464,39,tooth,0.267000281718,right,1,correct,arm1,3,arm13,lion
465,39,crutches,1.1836583456,right,1,correct,decision,2,decision2,lion
466,39,stapler,1.51706563495,left,1,correct,arm2,1,arm21,lion
467,39,rose,0.533645275049,right,1,correct,arm2,2,arm22,lion
468,39,lion,0.750245261006,right,1,correct,arm2,3,arm23,lion
469,40,bolt,0.566916848067,space,1,correct,target,NaN,targetNaN,bolt
470,40,coffeepot,0.083552936092,left,1,correct,path,1,path1,bolt
471,40,mosquito,0.0502206892706,right,1,correct,path,2,path2,bolt
472,40,canoe,0.100254829973,left,1,correct,path,3,path3,bolt
473,40,domino,0.567005292978,right,1,correct,decision,1,decision1,bolt
474,40,ambulance,0.733606758062,left,1,correct,arm1,1,arm11,bolt
475,40,trunk,0.466941540129,right,1,correct,arm1,2,arm12,bolt
476,40,peach,1.76686353981,right,1,correct,arm1,3,arm13,bolt
477,40,garlic,0.916966262273,right,1,correct,decision,2,decision2,bolt
478,40,mug,0.700294735376,left,1,correct,arm2,1,arm21,bolt
479,40,branch,0.633684879169,right,1,correct,arm2,2,arm22,bolt
480,40,bolt,5.01687153848,left,1,correct,arm2,3,arm23,bolt
481,41,bolt,0.53360180743,space,1,correct,target,NaN,targetNaN,bolt
482,41,coffeepot,0.300267930608,left,1,correct,path,1,path1,bolt
483,41,mosquito,0.11340715643,right,1,correct,path,2,path2,bolt
484,41,canoe,0.866946007591,left,1,correct,path,3,path3,bolt
485,41,domino,0.833426608238,left,1,correct,decision,1,decision1,bolt
486,41,ambulance,1.06690718839,left,1,correct,arm1,1,arm11,bolt
487,41,trunk,0.483876469545,right,1,correct,arm1,2,arm12,bolt
488,41,peach,2.78366866894,right,1,correct,arm1,3,arm13,bolt
489,41,garlic,0.566958806477,left,1,correct,decision,2,decision2,bolt
490,41,mug,0.800473497249,left,1,correct,arm2,1,arm21,bolt
491,41,branch,0.566922583152,right,1,correct,arm2,2,arm22,bolt
492,41,bolt,1.13358647283,left,1,correct,arm2,3,arm23,bolt
493,42,lion,0.750293558463,space,1,correct,target,NaN,targetNaN,lion
494,42,coffeepot,0.433654270601,left,1,correct,path,1,path1,lion
495,42,mosquito,0.100256037433,right,1,correct,path,2,path2,lion
496,42,canoe,0.133565342519,left,1,correct,path,3,path3,lion
497,42,goose,0.300539302174,left,1,correct,decision,1,decision1,lion
498,42,sailor,0.533597581089,left,1,correct,arm1,1,arm11,lion
499,42,cooker,0.716986064333,left,1,correct,arm1,2,arm12,lion
500,42,tooth,0.283572074026,right,1,correct,arm1,3,arm13,lion
501,42,crutches,2.06721629249,left,1,correct,decision,2,decision2,lion
502,42,stapler,0.600253320765,left,1,correct,arm2,1,arm21,lion
503,42,rose,0.500268050935,right,1,correct,arm2,2,arm22,lion
504,42,lion,0.316900094971,right,1,correct,arm2,3,arm23,lion
505,43,bolt,1.33359776251,space,1,correct,target,NaN,targetNaN,bolt
506,43,coffeepot,0.367004266474,left,1,correct,path,1,path1,bolt
507,43,mosquito,0.183573221322,right,1,correct,path,2,path2,bolt
508,43,canoe,0.133632959332,left,1,correct,path,3,path3,bolt
509,43,domino,2.31706249528,right,1,correct,decision,1,decision1,bolt
510,43,ambulance,0.416978638619,left,1,correct,arm1,1,arm11,bolt
511,43,trunk,0.566911112517,right,1,correct,arm1,2,arm12,bolt
512,43,peach,0.150241276715,right,1,correct,arm1,3,arm13,bolt
513,43,garlic,0.650318250526,right,1,correct,decision,2,decision2,bolt
514,43,mug,0.516961191315,left,1,correct,arm2,1,arm21,bolt
515,43,branch,0.433817274868,right,1,correct,arm2,2,arm22,bolt
516,43,bolt,1.75021990482,left,1,correct,arm2,3,arm23,bolt
517,44,lion,0.583594291005,space,1,correct,target,NaN,targetNaN,lion
518,44,coffeepot,0.216963727027,left,1,correct,path,1,path1,lion
519,44,mosquito,0.0502255191095,right,1,correct,path,2,path2,lion
520,44,canoe,0.150243389886,left,1,correct,path,3,path3,lion
521,44,goose,2.66685140505,right,1,correct,decision,1,decision1,lion
522,44,sailor,0.500089048408,left,1,correct,arm1,1,arm11,lion
523,44,cooker,0.73360253172,left,1,correct,arm1,2,arm12,lion
524,44,tooth,0.616913557518,right,1,correct,arm1,3,arm13,lion
525,44,crutches,2.78360950481,left,1,correct,decision,2,decision2,lion
526,44,stapler,0.8002664214,left,1,correct,arm2,1,arm21,lion
527,44,rose,0.566968767438,right,1,correct,arm2,2,arm22,lion
528,44,lion,0.216897015925,right,1,correct,arm2,3,arm23,lion
529,45,lion,0.483657319564,space,1,correct,target,NaN,targetNaN,lion
530,45,coffeepot,0.0669056791812,left,1,correct,path,1,path1,lion
531,45,mosquito,0.0168914617971,right,1,correct,path,2,path2,lion
532,45,canoe,0.0668996418826,left,1,correct,path,3,path3,lion
533,45,goose,0.333447134122,left,1,correct,decision,1,decision1,lion
534,45,sailor,0.566923488863,left,1,correct,arm1,1,arm11,lion
535,45,cooker,0.516935834661,left,1,correct,arm1,2,arm12,lion
536,45,tooth,0.350259206723,right,1,correct,arm1,3,arm13,lion
537,45,crutches,0.950263493229,left,1,correct,decision,2,decision2,lion
538,45,stapler,1.76690851664,left,1,correct,arm2,1,arm21,lion
539,45,rose,0.966932484414,right,1,correct,arm2,2,arm22,lion
540,45,lion,0.116931065451,right,1,correct,arm2,3,arm23,lion
541,46,bolt,0.583601837512,space,1,correct,target,NaN,targetNaN,bolt
542,46,coffeepot,1.31691548973,left,1,correct,path,1,path1,bolt
543,46,mosquito,0.183584691957,right,1,correct,path,2,path2,bolt
544,46,canoe,0.217009911314,left,1,correct,path,3,path3,bolt
545,46,domino,0.616957931314,right,1,correct,decision,1,decision1,bolt
546,46,ambulance,0.433623782825,left,1,correct,arm1,1,arm11,bolt
547,46,trunk,0.417015465442,right,1,correct,arm1,2,arm12,bolt
548,46,peach,0.167003239971,right,1,correct,arm1,3,arm13,bolt
549,46,garlic,0.76700782869,right,1,correct,decision,2,decision2,bolt
550,46,mug,0.466921617743,left,1,correct,arm2,1,arm21,bolt
551,46,branch,0.56719335122,right,1,correct,arm2,2,arm22,bolt
552,46,bolt,0.950284925289,left,1,correct,arm2,3,arm23,bolt
553,47,bolt,0.216929314658,space,1,correct,target,NaN,targetNaN,bolt
554,47,coffeepot,0.366878692526,left,1,correct,path,1,path1,bolt
555,47,mosquito,0.114093282726,right,1,correct,path,2,path2,bolt
556,47,canoe,0.383702839725,left,1,correct,path,3,path3,bolt
557,47,domino,0.916990109254,right,1,correct,decision,1,decision1,bolt
558,47,ambulance,0.683692154009,left,1,correct,arm1,1,arm11,bolt
559,47,trunk,0.900256520137,right,1,correct,arm1,2,arm12,bolt
560,47,peach,0.550260535441,right,1,correct,arm1,3,arm13,bolt
561,47,garlic,0.866948120296,left,1,correct,decision,2,decision2,bolt
562,47,mug,0.883641864173,left,1,correct,arm2,1,arm21,bolt
563,47,branch,0.917111456394,right,1,correct,arm2,2,arm22,bolt
564,47,bolt,1.3170184237,left,1,correct,arm2,3,arm23,bolt
565,48,lion,0.666959168855,space,1,correct,target,NaN,targetNaN,lion
566,48,coffeepot,0.533680592664,left,1,correct,path,1,path1,lion
567,48,mosquito,0.300262799021,right,1,correct,path,2,path2,lion
568,48,canoe,0.11690631276,left,1,correct,path,3,path3,lion
569,48,goose,0.567017970607,right,1,correct,decision,1,decision1,lion
570,48,sailor,0.466930069495,left,1,correct,arm1,1,arm11,lion
571,48,cooker,0.550315775443,left,1,correct,arm1,2,arm12,lion
572,48,tooth,0.483576118946,right,1,correct,arm1,3,arm13,lion
573,48,crutches,1.41696626227,right,1,correct,decision,2,decision2,lion
574,48,stapler,0.566933148541,left,1,correct,arm2,1,arm21,lion
575,48,rose,0.466927654576,right,1,correct,arm2,2,arm22,lion
576,48,lion,0.550379165914,right,1,correct,arm2,3,arm23,lion
577,49,lion,0.883616205771,space,1,correct,target,NaN,targetNaN,lion
578,49,coffeepot,0.53391332645,left,1,correct,path,1,path1,lion
579,49,mosquito,0.100542200264,right,1,correct,path,2,path2,lion
580,49,canoe,0.150254256558,left,1,correct,path,3,path3,lion
581,49,goose,1.95023783529,right,1,correct,decision,1,decision1,lion
582,49,sailor,0.450284623541,left,1,correct,arm1,1,arm11,lion
583,49,cooker,0.483716181945,left,1,correct,arm1,2,arm12,lion
584,49,tooth,0.200303489342,right,1,correct,arm1,3,arm13,lion
585,49,crutches,0.567009518854,right,1,correct,decision,2,decision2,lion
586,49,stapler,0.700257908553,left,1,correct,arm2,1,arm21,lion
587,49,rose,0.28358716704,right,1,correct,arm2,2,arm22,lion
588,49,lion,0.116899973713,right,1,correct,arm2,3,arm23,lion
589,50,bolt,0.550254799891,space,1,correct,target,NaN,targetNaN,bolt
590,50,coffeepot,1.41689894767,left,1,correct,path,1,path1,bolt
591,50,mosquito,0.113634154201,right,1,correct,path,2,path2,bolt
592,50,canoe,0.866919142194,left,1,correct,path,3,path3,bolt
593,50,domino,4.33356787823,left,1,correct,decision,1,decision1,bolt
594,50,ambulance,0.616909029428,left,1,correct,arm1,1,arm11,bolt
595,50,trunk,2.48369535338,right,1,correct,arm1,2,arm12,bolt
596,50,peach,0.750273937359,right,1,correct,arm1,3,arm13,bolt
597,50,garlic,0.683581371792,right,1,correct,decision,2,decision2,bolt
598,50,mug,0.683377918322,left,1,correct,arm2,1,arm21,bolt
599,50,branch,0.616909935605,right,1,correct,arm2,2,arm22,bolt
600,50,bolt,0.883583907038,left,1,correct,arm2,3,arm23,bolt
