pic_index,trial_num,pic_name,rt,resp,feedback_code,feedback,segment,segment_index,pic_type,trial_target
1,1,lion,0.066938883625,space,1,correct,target,NaN,targetNaN,lion
2,1,coffeepot,2.60023943521,left,1,correct,path,1,path1,lion
3,1,mosquito,2.31693329941,left,1,correct,path,2,path2,lion
4,1,canoe,0.6667297557,right,1,correct,path,3,path3,lion
5,1,goose,5.15022105165,right,1,correct,decision,1,decision1,lion
6,1,sailor,2.4502333072,left,1,correct,arm1,1,arm11,lion
7,1,cooker,1.00028706854,right,1,correct,arm1,2,arm12,lion
8,1,tooth,0.700236175209,left,1,correct,arm1,3,arm13,lion
9,1,crutches,3.55022219894,right,1,correct,decision,2,decision2,lion
10,1,stapler,3.56688817125,right,1,correct,arm2,1,arm21,lion
11,1,rose,0.983572798315,right,1,correct,arm2,2,arm22,lion
12,1,lion,0.816909150686,left,1,correct,arm2,3,arm23,lion
13,2,lion,0.0670922282152,space,-1,miss,target,NaN,targetNaN,lion
14,2,coffeepot,3.18358318228,left,-1,miss,path,1,path1,lion
15,2,mosquito,1.23358532554,left,-1,miss,path,2,path2,lion
16,2,canoe,0.900413185358,right,-1,miss,path,3,path3,lion
17,2,goose,1.41691343673,left,-1,miss,decision,1,decision1,lion
18,2,sailor,2.88355432451,left,-1,miss,arm1,1,arm11,lion
19,2,cooker,3.21688554529,right,-1,miss,arm1,2,arm12,lion
20,2,tooth,1.63361665886,left,-1,miss,arm1,3,arm13,lion
21,2,garlic,1.55031939782,right,-1,miss,decision,2,decision2,lion
22,2,mug,2.78355215164,right,-1,miss,arm2,1,arm21,lion
23,2,branch,0.91690226784,right,-1,miss,arm2,2,arm22,lion
24,2,bolt,1.28356664069,right,-1,miss,arm2,3,arm23,lion
25,3,lion,4.36695234664,space,1,correct,target,NaN,targetNaN,lion
26,3,coffeepot,3.05021767085,left,1,correct,path,1,path1,lion
27,3,mosquito,0.483613247517,left,1,correct,path,2,path2,lion
28,3,canoe,0.733585627284,right,1,correct,path,3,path3,lion
29,3,goose,1.06697842758,left,1,correct,decision,1,decision1,lion
30,3,sailor,3.000241186,left,1,correct,arm1,1,arm11,lion
31,3,cooker,1.05024664942,right,1,correct,arm1,2,arm12,lion
32,3,tooth,0.833570594899,left,1,correct,arm1,3,arm13,lion
33,3,crutches,1.30046474282,right,1,correct,decision,2,decision2,lion
34,3,stapler,1.81695805211,right,1,correct,arm2,1,arm21,lion
35,3,rose,0.73358200537,right,1,correct,arm2,2,arm22,lion
36,3,lion,0.666914191563,left,1,correct,arm2,3,arm23,lion
37,4,bolt,1.3337248452,space,1,correct,target,NaN,targetNaN,bolt
38,4,coffeepot,2.51688753767,left,1,correct,path,1,path1,bolt
39,4,mosquito,1.51699831989,left,1,correct,path,2,path2,bolt
40,4,canoe,0.516938853543,right,1,correct,path,3,path3,bolt
41,4,domino,1.11690148339,right,1,correct,decision,1,decision1,bolt
42,4,ambulance,1.06694522267,right,1,correct,arm1,1,arm11,bolt
43,4,trunk,0.90025018109,left,1,correct,arm1,2,arm12,bolt
44,4,peach,0.750270617194,left,1,correct,arm1,3,arm13,bolt
45,4,garlic,1.08360425243,right,1,correct,decision,2,decision2,bolt
46,4,mug,3.03359697759,right,1,correct,arm2,1,arm21,bolt
47,4,branch,1.85021936102,right,1,correct,arm2,2,arm22,bolt
48,4,bolt,2.11694434704,right,1,correct,arm2,3,arm23,bolt
49,5,bolt,4.35024381196,space,-1,miss,target,NaN,targetNaN,bolt
50,5,coffeepot,1.26717385091,left,-1,miss,path,1,path1,bolt
51,5,mosquito,0.650240370538,left,-1,miss,path,2,path2,bolt
52,5,canoe,0.600246679503,right,-1,miss,path,3,path3,bolt
53,5,domino,0.866954761557,left,-1,miss,decision,1,decision1,bolt
54,5,ambulance,1.66691419156,right,-1,miss,arm1,1,arm11,bolt
55,5,trunk,1.46694214409,left,-1,miss,arm1,2,arm12,bolt
56,5,peach,0.566896019503,left,-1,miss,arm1,3,arm13,bolt
57,5,crutches,0.900519742165,right,-1,miss,decision,2,decision2,bolt
58,5,stapler,1.16690362664,right,-1,miss,arm2,1,arm21,bolt
59,5,rose,3.91686664848,right,-1,miss,arm2,2,arm22,bolt
60,5,lion,0.616914463229,left,-1,miss,arm2,3,arm23,bolt
61,6,lion,1.03358399775,space,-1,miss,target,NaN,targetNaN,lion
62,6,coffeepot,1.45002351468,left,-1,miss,path,1,path1,lion
63,6,mosquito,2.65027206577,left,-1,miss,path,2,path2,lion
64,6,canoe,0.316882888786,right,-1,miss,path,3,path3,lion
65,6,domino,0.816947486717,left,-1,miss,decision,1,decision1,lion
66,6,ambulance,1.55023548054,right,-1,miss,arm1,1,arm11,lion
67,6,trunk,0.66690121172,left,-1,miss,arm1,2,arm12,lion
68,6,peach,0.416916153394,left,-1,miss,arm1,3,arm13,lion
69,6,garlic,1.76694141934,left,-1,miss,decision,2,decision2,lion
70,6,mug,1.16695464076,right,-1,miss,arm2,1,arm21,lion
71,6,branch,0.500242091715,right,-1,miss,arm2,2,arm22,lion
72,6,bolt,0.616907822434,right,-1,miss,arm2,3,arm23,lion
73,7,lion,0.600260866806,space,1,correct,target,NaN,targetNaN,lion
74,7,coffeepot,1.40024806838,left,1,correct,path,1,path1,lion
75,7,mosquito,0.500250241719,left,1,correct,path,2,path2,lion
76,7,canoe,0.533572527114,right,1,correct,path,3,path3,lion
77,7,goose,0.700334883295,right,1,correct,decision,1,decision1,lion
78,7,sailor,1.18362966878,left,1,correct,arm1,1,arm11,lion
79,7,cooker,1.51669132849,right,1,correct,arm1,2,arm12,lion
80,7,tooth,0.683587710373,left,1,correct,arm1,3,arm13,lion
81,7,crutches,0.783591393381,right,1,correct,decision,2,decision2,lion
82,7,stapler,1.2668976495,right,1,correct,arm2,1,arm21,lion
83,7,rose,0.667054254562,right,1,correct,arm2,2,arm22,lion
84,7,lion,0.800252234098,left,1,correct,arm2,3,arm23,lion
85,8,bolt,0.600364103448,space,1,correct,target,NaN,targetNaN,bolt
86,8,coffeepot,1.28359078942,left,1,correct,path,1,path1,bolt
87,8,mosquito,2.00023484649,left,1,correct,path,2,path2,bolt
88,8,canoe,0.466935201082,right,1,correct,path,3,path3,bolt
89,8,domino,0.667061800603,left,1,correct,decision,1,decision1,bolt
90,8,ambulance,2.2002500603,right,1,correct,arm1,1,arm11,bolt
91,8,trunk,1.3502404918,left,1,correct,arm1,2,arm12,bolt
92,8,peach,0.233546385542,left,1,correct,arm1,3,arm13,bolt
93,8,garlic,0.717024400365,left,1,correct,decision,2,decision2,bolt
94,8,mug,0.716934446245,right,1,correct,arm2,1,arm21,bolt
95,8,branch,0.466998591553,right,1,correct,arm2,2,arm22,bolt
96,8,bolt,0.500257486012,right,1,correct,arm2,3,arm23,bolt
97,9,bolt,0.500268654898,space,0,wrong,target,NaN,targetNaN,bolt
98,9,coffeepot,1.45025745593,left,0,wrong,path,1,path1,bolt
99,9,mosquito,0.400268896483,left,0,wrong,path,2,path2,bolt
100,9,canoe,0.366871448234,right,0,wrong,path,3,path3,bolt
101,9,goose,0.950711452868,right,0,wrong,decision,1,decision1,bolt
102,9,sailor,2.06728179613,left,0,wrong,arm1,1,arm11,bolt
103,9,cooker,4.7335388395,right,0,wrong,arm1,2,arm12,bolt
104,9,tooth,0.700257909019,left,0,wrong,arm1,3,arm13,bolt
105,9,garlic,0.817371901125,left,0,wrong,decision,2,decision2,bolt
106,9,mug,2.53334733984,right,0,wrong,arm2,1,arm21,bolt
107,9,branch,0.733598607592,right,0,wrong,arm2,2,arm22,bolt
108,9,bolt,0.466930672992,right,0,wrong,arm2,3,arm23,bolt
109,10,lion,1.03356950823,space,-1,miss,target,NaN,targetNaN,lion
110,10,coffeepot,3.16689819284,left,-1,miss,path,1,path1,lion
111,10,mosquito,0.350261018146,left,-1,miss,path,2,path2,lion
112,10,canoe,0.200228326954,right,-1,miss,path,3,path3,lion
113,10,domino,1.13380924519,right,-1,miss,decision,1,decision1,lion
114,10,ambulance,3.03355018888,right,-1,miss,arm1,1,arm11,lion
115,10,trunk,0.766715024598,left,-1,miss,arm1,2,arm12,lion
116,10,peach,0.233585325535,left,-1,miss,arm1,3,arm13,lion
117,10,garlic,0.916978940368,left,-1,miss,decision,2,decision2,lion
118,10,mug,1.46690622251,right,-1,miss,arm2,1,arm21,lion
119,10,branch,2.56690235855,right,-1,miss,arm2,2,arm22,lion
120,10,bolt,1.88357605878,right,-1,miss,arm2,3,arm23,lion
121,11,bolt,0.866916727275,space,1,correct,target,NaN,targetNaN,bolt
122,11,coffeepot,1.4669053168,left,1,correct,path,1,path1,bolt
123,11,mosquito,0.433580315206,left,1,correct,path,2,path2,bolt
124,11,canoe,0.233736859169,right,1,correct,path,3,path3,bolt
125,11,domino,0.867078825831,left,1,correct,decision,1,decision1,bolt
126,11,ambulance,1.65030587465,right,1,correct,arm1,1,arm11,bolt
127,11,trunk,0.566926809493,left,1,correct,arm1,2,arm12,bolt
128,11,peach,0.216919353697,left,1,correct,arm1,3,arm13,bolt
129,11,garlic,1.11695400672,right,1,correct,decision,2,decision2,bolt
130,11,mug,1.8335491633,right,1,correct,arm2,1,arm21,bolt
131,11,branch,0.600262074731,right,1,correct,arm2,2,arm22,bolt
132,11,bolt,0.700335486792,right,1,correct,arm2,3,arm23,bolt
133,12,bolt,0.550486929715,space,-1,miss,target,NaN,targetNaN,bolt
134,12,coffeepot,2.00023665791,left,-1,miss,path,1,path1,bolt
135,12,mosquito,0.300234726164,left,-1,miss,path,2,path2,bolt
136,12,canoe,0.183563561644,right,-1,miss,path,3,path3,bolt
137,12,goose,0.8669414795,left,-1,miss,decision,1,decision1,bolt
138,12,sailor,2.13335373905,left,-1,miss,arm1,1,arm11,bolt
139,12,cooker,1.26691817632,right,-1,miss,arm1,2,arm12,bolt
140,12,tooth,0.433567033149,left,-1,miss,arm1,3,arm13,bolt
141,12,crutches,0.850279129576,left,-1,miss,decision,2,decision2,bolt
142,12,stapler,1.15023856005,right,-1,miss,arm2,1,arm21,bolt
143,12,rose,0.533404693007,right,-1,miss,arm2,2,arm22,bolt
144,12,lion,0.500237865373,left,-1,miss,arm2,3,arm23,bolt
145,13,bolt,1.08358221687,space,-1,miss,target,NaN,targetNaN,bolt
146,13,coffeepot,1.13357469998,left,-1,miss,path,1,path1,bolt
147,13,mosquito,0.383616507985,left,-1,miss,path,2,path2,bolt
148,13,canoe,0.217159633525,right,-1,miss,path,3,path3,bolt
149,13,domino,0.866986758541,left,-1,miss,decision,1,decision1,bolt
150,13,ambulance,1.38358360529,right,-1,miss,arm1,1,arm11,bolt
151,13,trunk,0.466958142351,left,-1,miss,arm1,2,arm12,bolt
152,13,peach,0.233610682189,left,-1,miss,arm1,3,arm13,bolt
153,13,crutches,1.55028498592,right,-1,miss,decision,2,decision2,bolt
154,13,stapler,7.18351737736,right,-1,miss,arm2,1,arm21,bolt
155,13,rose,0.266943230294,right,-1,miss,arm2,2,arm22,bolt
156,13,lion,0.400237201247,left,-1,miss,arm2,3,arm23,bolt
157,14,lion,0.600257244892,space,0,wrong,target,NaN,targetNaN,lion
158,14,coffeepot,1.53357645078,left,0,wrong,path,1,path1,lion
159,14,mosquito,0.400238408707,left,0,wrong,path,2,path2,lion
160,14,canoe,0.114233345725,right,0,wrong,path,3,path3,lion
161,14,domino,0.566937676165,left,0,wrong,decision,1,decision1,lion
162,14,ambulance,2.28354883101,right,0,wrong,arm1,1,arm11,lion
163,14,trunk,0.450258059893,left,0,wrong,arm1,2,arm12,lion
164,14,peach,0.133573794737,left,0,wrong,arm1,3,arm13,lion
165,14,crutches,0.766962549649,left,0,wrong,decision,2,decision2,lion
166,14,stapler,0.983591514174,right,0,wrong,arm2,1,arm21,lion
167,14,rose,0.767049485352,right,0,wrong,arm2,2,arm22,lion
168,14,lion,0.300232914742,left,0,wrong,arm2,3,arm23,lion
169,15,bolt,0.83359323442,space,-1,miss,target,NaN,targetNaN,bolt
170,15,coffeepot,1.20060414169,left,-1,miss,path,1,path1,bolt
171,15,mosquito,0.100227964111,left,-1,miss,path,2,path2,bolt
172,15,canoe,0.100232190453,right,-1,miss,path,3,path3,bolt
173,15,domino,1.25032706512,left,-1,miss,decision,1,decision1,bolt
174,15,ambulance,0.583623571321,right,-1,miss,arm1,1,arm11,bolt
175,15,trunk,0.366917934734,left,-1,miss,arm1,2,arm12,bolt
176,15,peach,0.200279944576,left,-1,miss,arm1,3,arm13,bolt
177,15,crutches,0.783617353067,left,-1,miss,decision,2,decision2,bolt
178,15,stapler,1.9169230964,right,-1,miss,arm2,1,arm21,bolt
179,15,rose,0.933379276656,right,-1,miss,arm2,2,arm22,bolt
180,15,lion,0.833595347591,left,-1,miss,arm2,3,arm23,bolt
181,16,lion,0.56692982791,space,-1,miss,target,NaN,targetNaN,lion
182,16,coffeepot,1.46692161728,left,-1,miss,path,1,path1,lion
183,16,mosquito,0.166991769802,left,-1,miss,path,2,path2,lion
184,16,canoe,0.133567153942,right,-1,miss,path,3,path3,lion
185,16,domino,0.683359202929,right,-1,miss,decision,1,decision1,lion
186,16,ambulance,1.83359927172,right,-1,miss,arm1,1,arm11,lion
187,16,trunk,0.383581492119,left,-1,miss,arm1,2,arm12,lion
188,16,peach,0.183619406074,left,-1,miss,arm1,3,arm13,lion
189,16,garlic,1.25030291639,right,-1,miss,decision,2,decision2,lion
190,16,mug,2.06690567918,right,-1,miss,arm2,1,arm21,lion
191,16,branch,0.633578926325,right,-1,miss,arm2,2,arm22,lion
192,16,bolt,2.41689743847,right,-1,miss,arm2,3,arm23,lion
193,17,bolt,0.683612463064,space,-1,miss,target,NaN,targetNaN,bolt
194,17,coffeepot,2.30022114236,left,-1,miss,path,1,path1,bolt
195,17,mosquito,0.250228658784,left,-1,miss,path,2,path2,bolt
196,17,canoe,0.183586804662,right,-1,miss,path,3,path3,bolt
197,17,goose,1.31694748672,left,-1,miss,decision,1,decision1,bolt
198,17,sailor,1.38357062498,left,-1,miss,arm1,1,arm11,bolt
199,17,cooker,1.31691458402,right,-1,miss,arm1,2,arm12,bolt
200,17,tooth,0.383611376397,left,-1,miss,arm1,3,arm13,bolt
201,17,crutches,2.05026415735,right,-1,miss,decision,2,decision2,bolt
202,17,stapler,1.83357270807,right,-1,miss,arm2,1,arm21,bolt
203,17,rose,0.416911021806,right,-1,miss,arm2,2,arm22,bolt
204,17,lion,0.416909513064,left,-1,miss,arm2,3,arm23,bolt
205,18,lion,0.517000433058,space,-1,miss,target,NaN,targetNaN,lion
206,18,coffeepot,1.20023557125,left,-1,miss,path,1,path1,lion
207,18,mosquito,0.216881621163,left,-1,miss,path,2,path2,lion
208,18,canoe,0.166698663495,right,-1,miss,path,3,path3,lion
209,18,goose,0.500307293143,left,-1,miss,decision,1,decision1,lion
210,18,sailor,2.28357328149,left,-1,miss,arm1,1,arm11,lion
211,18,cooker,0.366941177752,right,-1,miss,arm1,2,arm12,lion
212,18,tooth,0.433573976159,left,-1,miss,arm1,3,arm13,lion
213,18,garlic,0.78363244608,left,-1,miss,decision,2,decision2,lion
214,18,mug,4.10020623077,right,-1,miss,arm2,1,arm21,lion
215,18,branch,0.733582608867,right,-1,miss,arm2,2,arm22,lion
216,18,bolt,1.0002686549,right,-1,miss,arm2,3,arm23,lion
217,19,lion,0.866917330772,space,0,wrong,target,NaN,targetNaN,lion
218,19,coffeepot,2.90023539029,left,0,wrong,path,1,path1,lion
219,19,mosquito,1.16693562362,left,0,wrong,path,2,path2,lion
220,19,canoe,0.100250301883,right,0,wrong,path,3,path3,lion
221,19,domino,1.30019729538,right,0,wrong,decision,1,decision1,lion
222,19,ambulance,3.00020647189,right,0,wrong,arm1,1,arm11,lion
223,19,trunk,0.416910418309,left,0,wrong,arm1,2,arm12,lion
224,19,peach,0.650227994658,left,0,wrong,arm1,3,arm13,lion
225,19,crutches,0.483710748609,left,0,wrong,decision,2,decision2,lion
226,19,stapler,2.31688168133,right,0,wrong,arm2,1,arm21,lion
227,19,rose,0.466925541405,right,0,wrong,arm2,2,arm22,lion
228,19,lion,0.416901060846,left,0,wrong,arm2,3,arm23,lion
229,20,bolt,0.650268745609,space,1,correct,target,NaN,targetNaN,bolt
230,20,coffeepot,2.25023077196,left,1,correct,path,1,path1,bolt
231,20,mosquito,0.316901302431,left,1,correct,path,2,path2,bolt
232,20,canoe,0.100228568073,right,1,correct,path,3,path3,bolt
233,20,domino,0.883653032593,left,1,correct,decision,1,decision1,bolt
234,20,ambulance,0.83372846758,right,1,correct,arm1,1,arm11,bolt
235,20,trunk,0.333635796793,left,1,correct,arm1,2,arm12,bolt
236,20,peach,0.200224704109,left,1,correct,arm1,3,arm13,bolt
237,20,garlic,1.15011630626,left,1,correct,decision,2,decision2,bolt
238,20,mug,0.983582156245,right,1,correct,arm2,1,arm21,bolt
239,20,branch,0.433590880129,right,1,correct,arm2,2,arm22,bolt
240,20,bolt,0.400267991237,right,1,correct,arm2,3,arm23,bolt
241,21,lion,0.583589159418,space,-1,miss,target,NaN,targetNaN,lion
242,21,coffeepot,0.600379497744,left,-1,miss,path,1,path1,lion
243,21,mosquito,0.183603709098,left,-1,miss,path,2,path2,lion
244,21,canoe,0.133579529822,right,-1,miss,path,3,path3,lion
245,21,goose,1.11699988972,right,-1,miss,decision,1,decision1,lion
246,21,sailor,0.866938762832,left,-1,miss,arm1,1,arm11,lion
247,21,cooker,0.500388795044,right,-1,miss,arm1,2,arm12,lion
248,21,tooth,0.216906976886,left,-1,miss,arm1,3,arm13,lion
249,21,garlic,0.650403374806,left,-1,miss,decision,2,decision2,lion
250,21,mug,0.850256791804,right,-1,miss,arm2,1,arm21,lion
251,21,branch,0.733607663307,right,-1,miss,arm2,2,arm22,lion
252,21,bolt,0.1671001371,right,-1,miss,arm2,3,arm23,lion
253,22,bolt,0.45028824592,space,-1,miss,target,NaN,targetNaN,bolt
254,22,coffeepot,1.06691232044,left,-1,miss,path,1,path1,bolt
255,22,mosquito,0.316914282274,left,-1,miss,path,2,path2,bolt
256,22,canoe,0.10023611458,right,-1,miss,path,3,path3,bolt
257,22,goose,1.26695892727,left,-1,miss,decision,1,decision1,bolt
258,22,sailor,2.00041958457,left,-1,miss,arm1,1,arm11,bolt
259,22,cooker,0.450049173087,right,-1,miss,arm1,2,arm12,bolt
260,22,tooth,0.16691479506,left,-1,miss,arm1,3,arm13,bolt
261,22,crutches,0.800340075046,left,-1,miss,decision,2,decision2,bolt
262,22,stapler,0.817027781624,right,-1,miss,arm2,1,arm21,bolt
263,22,rose,0.316912470851,right,-1,miss,arm2,2,arm22,bolt
264,22,lion,0.233564497437,left,-1,miss,arm2,3,arm23,bolt
265,23,lion,0.550248762593,space,-1,miss,target,NaN,targetNaN,lion
266,23,coffeepot,3.20022621378,left,-1,miss,path,1,path1,lion
267,23,mosquito,0.0835659159347,left,-1,miss,path,2,path2,lion
268,23,canoe,0.133696349338,right,-1,miss,path,3,path3,lion
269,23,domino,0.7503192164,right,-1,miss,decision,1,decision1,lion
270,23,ambulance,1.10023671854,right,-1,miss,arm1,1,arm11,lion
271,23,trunk,0.36692578299,left,-1,miss,arm1,2,arm12,lion
272,23,peach,0.150248218793,left,-1,miss,arm1,3,arm13,lion
273,23,garlic,0.500249939971,left,-1,miss,decision,2,decision2,lion
274,23,mug,0.633676125202,right,-1,miss,arm2,1,arm21,lion
275,23,branch,0.366881711408,right,-1,miss,arm2,2,arm22,lion
276,23,bolt,0.533562867437,right,-1,miss,arm2,3,arm23,lion
277,24,bolt,0.633577417117,space,0,wrong,target,NaN,targetNaN,bolt
278,24,coffeepot,1.05024966784,left,0,wrong,path,1,path1,bolt
279,24,mosquito,0.100229473785,left,0,wrong,path,2,path2,bolt
280,24,canoe,0.100256942678,right,0,wrong,path,3,path3,bolt
281,24,goose,0.616995059885,left,0,wrong,decision,1,decision1,bolt
282,24,sailor,2.033630786,left,0,wrong,arm1,1,arm11,bolt
283,24,cooker,0.250222319271,right,0,wrong,arm1,2,arm12,bolt
284,24,tooth,0.150350549724,left,0,wrong,arm1,3,arm13,bolt
285,24,garlic,0.650294101797,left,0,wrong,decision,2,decision2,bolt
286,24,mug,0.616973023862,right,0,wrong,arm2,1,arm21,bolt
287,24,branch,0.483950424939,right,0,wrong,arm2,2,arm22,bolt
288,24,bolt,0.466921919491,right,0,wrong,arm2,3,arm23,bolt
289,25,lion,0.350273695774,space,0,wrong,target,NaN,targetNaN,lion
290,25,coffeepot,1.05023940513,left,0,wrong,path,1,path1,lion
291,25,mosquito,0.250256128144,left,0,wrong,path,2,path2,lion
292,25,canoe,0.133563531563,right,0,wrong,path,3,path3,lion
293,25,domino,0.700307715684,right,0,wrong,decision,1,decision1,lion
294,25,ambulance,0.883574850857,right,0,wrong,arm1,1,arm11,lion
295,25,trunk,0.317046798766,left,0,wrong,arm1,2,arm12,lion
296,25,peach,0.666923247278,left,0,wrong,arm1,3,arm13,lion
297,25,crutches,0.450048870873,right,0,wrong,decision,2,decision2,lion
298,25,stapler,0.766932967119,right,0,wrong,arm2,1,arm21,lion
299,25,rose,0.166717378888,right,0,wrong,arm2,2,arm22,lion
300,25,lion,0.400269802194,left,0,wrong,arm2,3,arm23,lion
301,26,lion,0.816930884495,space,-1,miss,target,NaN,targetNaN,lion
302,26,coffeepot,3.06695125997,left,-1,miss,path,1,path1,lion
303,26,mosquito,0.166720096022,left,-1,miss,path,2,path2,lion
304,26,canoe,0.0502366879955,right,-1,miss,path,3,path3,lion
305,26,goose,0.416918266565,left,-1,miss,decision,1,decision1,lion
306,26,sailor,1.05035411147,left,-1,miss,arm1,1,arm11,lion
307,26,cooker,0.11698026862,right,-1,miss,arm1,2,arm12,lion
308,26,tooth,0.233694297262,left,-1,miss,arm1,3,arm13,lion
309,26,garlic,0.750297482591,left,-1,miss,decision,2,decision2,lion
310,26,mug,0.633584057912,right,-1,miss,arm2,1,arm21,lion
311,26,branch,0.183706945274,right,-1,miss,arm2,2,arm22,lion
312,26,bolt,0.0835807071999,right,-1,miss,arm2,3,arm23,lion
313,27,bolt,0.56712875329,space,-1,miss,target,NaN,targetNaN,bolt
314,27,coffeepot,1.81689496292,left,-1,miss,path,1,path1,bolt
315,27,mosquito,0.114216140006,left,-1,miss,path,2,path2,bolt
316,27,canoe,0.21690275101,right,-1,miss,path,3,path3,bolt
317,27,domino,1.43362408457,right,-1,miss,decision,1,decision1,bolt
318,27,ambulance,0.933596615214,right,-1,miss,arm1,1,arm11,bolt
319,27,trunk,0.366948724259,left,-1,miss,arm1,2,arm12,bolt
320,27,peach,0.183644460049,left,-1,miss,arm1,3,arm13,bolt
321,27,crutches,1.28358928021,right,-1,miss,decision,2,decision2,bolt
322,27,stapler,0.833698583301,right,-1,miss,arm2,1,arm21,bolt
323,27,rose,0.266903686803,right,-1,miss,arm2,2,arm22,bolt
324,27,lion,0.433568542358,left,-1,miss,arm2,3,arm23,bolt
325,28,bolt,1.81692363974,space,0,wrong,target,NaN,targetNaN,bolt
326,28,coffeepot,2.91699252417,left,0,wrong,path,1,path1,bolt
327,28,mosquito,0.0836507389322,left,0,wrong,path,2,path2,bolt
328,28,canoe,0.100224643946,right,0,wrong,path,3,path3,bolt
329,28,goose,2.3002664214,left,0,wrong,decision,1,decision1,bolt
330,28,sailor,1.85025015147,left,0,wrong,arm1,1,arm11,bolt
331,28,cooker,0.250426376704,right,0,wrong,arm1,2,arm12,bolt
332,28,tooth,0.116715235636,left,0,wrong,arm1,3,arm13,bolt
333,28,garlic,0.58362508053,left,0,wrong,decision,2,decision2,bolt
334,28,mug,1.08359791338,right,0,wrong,arm2,1,arm21,bolt
335,28,branch,0.383573039901,right,0,wrong,arm2,2,arm22,bolt
336,28,bolt,0.200264248066,right,0,wrong,arm2,3,arm23,bolt
337,29,lion,4.40019886522,space,-1,miss,target,NaN,targetNaN,lion
338,29,coffeepot,1.43359088013,left,-1,miss,path,1,path1,lion
339,29,mosquito,0.117010756396,left,-1,miss,path,2,path2,lion
340,29,canoe,0.133566851728,right,-1,miss,path,3,path3,lion
341,29,goose,2.95024990942,right,-1,miss,decision,1,decision1,lion
342,29,sailor,0.933669363614,left,-1,miss,arm1,1,arm11,lion
343,29,cooker,0.616923518945,right,-1,miss,arm1,2,arm12,lion
344,29,tooth,0.266910327598,left,-1,miss,arm1,3,arm13,lion
345,29,garlic,1.10033150204,left,-1,miss,decision,2,decision2,lion
346,29,mug,0.61702464195,right,-1,miss,arm2,1,arm21,lion
347,29,branch,0.233578382991,right,-1,miss,arm2,2,arm22,lion
348,29,bolt,0.25032042386,right,-1,miss,arm2,3,arm23,lion
349,30,lion,1.38363341196,space,-1,miss,target,NaN,targetNaN,lion
350,30,coffeepot,1.5169062526,left,-1,miss,path,1,path1,lion
351,30,mosquito,0.0335562266409,left,-1,miss,path,2,path2,lion
352,30,canoe,0.0168802929111,right,-1,miss,path,3,path3,lion
353,30,goose,2.6002669041,left,-1,miss,decision,1,decision1,lion
354,30,sailor,1.16697577108,left,-1,miss,arm1,1,arm11,lion
355,30,cooker,0.116915067192,right,-1,miss,arm1,2,arm12,lion
356,30,tooth,0.100256037433,left,-1,miss,arm1,3,arm13,lion
357,30,garlic,1.31672622357,right,-1,miss,decision,2,decision2,lion
358,30,mug,0.85026916815,right,-1,miss,arm2,1,arm21,lion
359,30,branch,0.233571440447,right,-1,miss,arm2,2,arm22,lion
360,30,bolt,0.416904683225,right,-1,miss,arm2,3,arm23,lion
361,31,lion,3.55027291132,space,0,wrong,target,NaN,targetNaN,lion
362,31,coffeepot,1.98356706323,left,0,wrong,path,1,path1,lion
363,31,mosquito,0.100227058865,left,0,wrong,path,2,path2,lion
364,31,canoe,0.033639841713,right,0,wrong,path,3,path3,lion
365,31,domino,2.33365451219,right,0,wrong,decision,1,decision1,lion
366,31,ambulance,0.916923398152,right,0,wrong,arm1,1,arm11,lion
367,31,trunk,0.133868108038,left,0,wrong,arm1,2,arm12,lion
368,31,peach,0.216922372114,left,0,wrong,arm1,3,arm13,lion
369,31,crutches,0.317034120206,right,0,wrong,decision,2,decision2,lion
370,31,stapler,0.617186740972,right,0,wrong,arm2,1,arm21,lion
371,31,rose,0.350217852276,right,0,wrong,arm2,2,arm22,lion
372,31,lion,0.334014630411,left,0,wrong,arm2,3,arm23,lion
373,32,lion,0.666970639024,space,0,wrong,target,NaN,targetNaN,lion
374,32,coffeepot,0.700244626962,left,0,wrong,path,1,path1,lion
375,32,mosquito,2.00020979252,left,0,wrong,path,2,path2,lion
376,32,canoe,0.113604873884,right,0,wrong,path,3,path3,lion
377,32,domino,1.88360171672,right,0,wrong,decision,1,decision1,lion
378,32,ambulance,1.10025935806,right,0,wrong,arm1,1,arm11,lion
379,32,trunk,0.500234846957,left,0,wrong,arm1,2,arm12,lion
380,32,peach,0.36692457553,left,0,wrong,arm1,3,arm13,lion
381,32,crutches,0.36697468441,left,0,wrong,decision,2,decision2,lion
382,32,stapler,0.633384226821,right,0,wrong,arm2,1,arm21,lion
383,32,rose,0.350236567203,right,0,wrong,arm2,2,arm22,lion
384,32,lion,0.383588435128,left,0,wrong,arm2,3,arm23,lion
385,33,bolt,0.650045067538,space,1,correct,target,NaN,targetNaN,bolt
386,33,coffeepot,1.66669081571,left,1,correct,path,1,path1,bolt
387,33,mosquito,0.100231888704,left,1,correct,path,2,path2,bolt
388,33,canoe,0.116903294344,right,1,correct,path,3,path3,bolt
389,33,domino,6.48354231054,left,1,correct,decision,1,decision1,bolt
390,33,ambulance,0.583553841803,right,1,correct,arm1,1,arm11,bolt
391,33,trunk,0.266898555215,left,1,correct,arm1,2,arm12,bolt
392,33,peach,0.0836404752918,left,1,correct,arm1,3,arm13,bolt
393,33,garlic,0.61704728147,right,1,correct,decision,2,decision2,bolt
394,33,mug,0.833598668221,right,1,correct,arm2,1,arm21,bolt
395,33,branch,0.250242242124,right,1,correct,arm2,2,arm22,bolt
396,33,bolt,0.533570112195,right,1,correct,arm2,3,arm23,bolt
397,34,bolt,0.666948603932,space,1,correct,target,NaN,targetNaN,bolt
398,34,coffeepot,0.71690848656,left,1,correct,path,1,path1,bolt
399,34,mosquito,0.10023732204,left,1,correct,path,2,path2,bolt
400,34,canoe,0.0835622935556,right,1,correct,path,3,path3,bolt
401,34,domino,1.20030409377,left,1,correct,decision,1,decision1,bolt
402,34,ambulance,1.00028193695,right,1,correct,arm1,1,arm11,bolt
403,34,trunk,0.20024372125,left,1,correct,arm1,2,arm12,bolt
404,34,peach,0.266903686803,left,1,correct,arm1,3,arm13,bolt
405,34,garlic,0.216932937037,right,1,correct,decision,2,decision2,bolt
406,34,mug,0.766918176319,right,1,correct,arm2,1,arm21,bolt
407,34,branch,0.150305874646,right,1,correct,arm2,2,arm22,bolt
408,34,bolt,0.500309707597,right,1,correct,arm2,3,arm23,bolt
409,35,bolt,0.500292804092,space,1,correct,target,NaN,targetNaN,bolt
410,35,coffeepot,0.983596645296,left,1,correct,path,1,path1,bolt
411,35,mosquito,0.100211664103,left,1,correct,path,2,path2,bolt
412,35,canoe,0.0670161596499,right,1,correct,path,3,path3,bolt
413,35,domino,0.0170665401965,right,1,correct,decision,1,decision1,bolt
414,35,ambulance,3.10023460537,right,1,correct,arm1,1,arm11,bolt
415,35,trunk,0.116902086884,left,1,correct,arm1,2,arm12,bolt
416,35,peach,0.183588012122,left,1,correct,arm1,3,arm13,bolt
417,35,garlic,1.50025054347,right,1,correct,decision,2,decision2,bolt
418,35,mug,0.633665258531,right,1,correct,arm2,1,arm21,bolt
419,35,branch,0.25027967291,right,1,correct,arm2,2,arm22,bolt
420,35,bolt,0.383386189118,right,1,correct,arm2,3,arm23,bolt
421,36,lion,0.600309466477,space,1,correct,target,NaN,targetNaN,lion
422,36,coffeepot,1.21693806862,left,1,correct,path,1,path1,lion
423,36,mosquito,0.316904018633,left,1,correct,path,2,path2,lion
424,36,canoe,0.0668969252147,right,1,correct,path,3,path3,lion
425,36,goose,3.5336045241,left,1,correct,decision,1,decision1,lion
426,36,sailor,1.31690250989,left,1,correct,arm1,1,arm11,lion
427,36,cooker,0.450338957831,right,1,correct,arm1,2,arm12,lion
428,36,tooth,0.083596101962,left,1,correct,arm1,3,arm13,lion
429,36,crutches,0.250389247667,left,1,correct,decision,2,decision2,lion
430,36,stapler,0.616913859732,right,1,correct,arm2,1,arm21,lion
431,36,rose,0.26707152091,right,1,correct,arm2,2,arm22,lion
432,36,lion,0.166725529358,left,1,correct,arm2,3,arm23,lion
433,37,lion,0.500275899656,space,1,correct,target,NaN,targetNaN,lion
434,37,coffeepot,1.83361255331,left,1,correct,path,1,path1,lion
435,37,mosquito,0.100225851405,left,1,correct,path,2,path2,lion
436,37,canoe,0.0835622940212,right,1,correct,path,3,path3,lion
437,37,goose,0.550334792584,left,1,correct,decision,1,decision1,lion
438,37,sailor,0.900301799644,left,1,correct,arm1,1,arm11,lion
439,37,cooker,0.100366216153,right,1,correct,arm1,2,arm12,lion
440,37,tooth,0.0669485433027,left,1,correct,arm1,3,arm13,lion
441,37,crutches,0.300301739015,left,1,correct,decision,2,decision2,lion
442,37,stapler,0.616937404498,right,1,correct,arm2,1,arm21,lion
443,37,rose,0.350233247038,right,1,correct,arm2,2,arm22,lion
444,37,lion,0.15022527799,left,1,correct,arm2,3,arm23,lion
445,38,bolt,0.583586744498,space,-1,miss,target,NaN,targetNaN,bolt
446,38,coffeepot,0.950255343225,left,-1,miss,path,1,path1,bolt
447,38,mosquito,0.500243298709,left,-1,miss,path,2,path2,bolt
448,38,canoe,0.383594170213,right,-1,miss,path,3,path3,bolt
449,38,goose,0.0504546305165,left,-1,miss,decision,1,decision1,bolt
450,38,sailor,2.95024960814,left,-1,miss,arm1,1,arm11,bolt
451,38,cooker,0.116937404498,right,-1,miss,arm1,2,arm12,bolt
452,38,tooth,0.116890616715,left,-1,miss,arm1,3,arm13,bolt
453,38,crutches,2.58369782893,left,-1,miss,decision,2,decision2,bolt
454,38,stapler,1.1669256622,right,-1,miss,arm2,1,arm21,bolt
455,38,rose,0.317188068759,right,-1,miss,arm2,2,arm22,bolt
456,38,lion,0.433620462194,left,-1,miss,arm2,3,arm23,bolt
457,39,lion,3.38357666275,space,0,wrong,target,NaN,targetNaN,lion
458,39,coffeepot,5.71691693878,left,0,wrong,path,1,path1,lion
459,39,mosquito,0.0503809768707,left,0,wrong,path,2,path2,lion
460,39,canoe,0.0836290051229,right,0,wrong,path,3,path3,lion
461,39,domino,0.500433168374,left,0,wrong,decision,1,decision1,lion
462,39,ambulance,1.05029494688,right,0,wrong,arm1,1,arm11,lion
463,39,trunk,0.217041606549,left,0,wrong,arm1,2,arm12,lion
464,39,peach,0.100222832523,left,0,wrong,arm1,3,arm13,lion
465,39,crutches,0.766999074724,left,0,wrong,decision,2,decision2,lion
466,39,stapler,1.11696336465,right,0,wrong,arm2,1,arm21,lion
467,39,rose,0.300360299647,right,0,wrong,arm2,2,arm22,lion
468,39,lion,0.13355839951,left,0,wrong,arm2,3,arm23,lion
469,40,bolt,3.10081538325,space,-1,miss,target,NaN,targetNaN,bolt
470,40,coffeepot,4.41703750147,left,-1,miss,path,1,path1,bolt
471,40,mosquito,0.0670671737753,left,-1,miss,path,2,path2,bolt
472,40,canoe,0.0669920109212,right,-1,miss,path,3,path3,bolt
473,40,goose,0.417075535748,left,-1,miss,decision,1,decision1,bolt
474,40,sailor,1.23357868521,left,-1,miss,arm1,1,arm11,bolt
475,40,cooker,0.100276563782,right,-1,miss,arm1,2,arm12,bolt
476,40,tooth,0.100793951657,left,-1,miss,arm1,3,arm13,bolt
477,40,crutches,0.217135183048,left,-1,miss,decision,2,decision2,bolt
478,40,stapler,0.783682856709,right,-1,miss,arm2,1,arm21,bolt
479,40,rose,0.100398213137,right,-1,miss,arm2,2,arm22,bolt
480,40,lion,0.133580133785,left,-1,miss,arm2,3,arm23,bolt
481,41,bolt,0.550337509252,space,-1,miss,target,NaN,targetNaN,bolt
482,41,coffeepot,0.900308138225,left,-1,miss,path,1,path1,bolt
483,41,mosquito,0.266939004418,left,-1,miss,path,2,path2,bolt
484,41,canoe,0.100299203303,right,-1,miss,path,3,path3,bolt
485,41,domino,1.13363899617,left,-1,miss,decision,1,decision1,bolt
486,41,ambulance,0.900290630758,right,-1,miss,arm1,1,arm11,bolt
487,41,trunk,0.333578141406,left,-1,miss,arm1,2,arm12,bolt
488,41,peach,0.0336905536242,left,-1,miss,arm1,3,arm13,bolt
489,41,crutches,0.400296667591,right,-1,miss,decision,2,decision2,bolt
490,41,stapler,1.58366100211,right,-1,miss,arm2,1,arm21,bolt
491,41,rose,0.233642075211,right,-1,miss,arm2,2,arm22,bolt
492,41,lion,0.133715970442,left,-1,miss,arm2,3,arm23,bolt
493,42,lion,0.617031886708,space,-1,miss,target,NaN,targetNaN,lion
494,42,coffeepot,1.83377525583,left,-1,miss,path,1,path1,lion
495,42,mosquito,0.167049424257,left,-1,miss,path,2,path2,lion
496,42,canoe,0.150271764025,right,-1,miss,path,3,path3,lion
497,42,domino,3.70019663172,left,-1,miss,decision,1,decision1,lion
498,42,ambulance,0.650378924329,right,-1,miss,arm1,1,arm11,lion
499,42,trunk,0.200292623136,left,-1,miss,arm1,2,arm12,lion
500,42,peach,0.133690010756,left,-1,miss,arm1,3,arm13,lion
501,42,garlic,0.333729071077,left,-1,miss,decision,2,decision2,lion
502,42,mug,0.716928711161,right,-1,miss,arm2,1,arm21,lion
503,42,branch,0.266918779816,right,-1,miss,arm2,2,arm22,lion
504,42,bolt,0.533558339346,right,-1,miss,arm2,3,arm23,lion
505,43,bolt,0.700234967284,space,-1,miss,target,NaN,targetNaN,bolt
506,43,coffeepot,3.30037539266,left,-1,miss,path,1,path1,bolt
507,43,mosquito,0.1001772522,left,-1,miss,path,2,path2,bolt
508,43,canoe,0.083403817378,right,-1,miss,path,3,path3,bolt
509,43,domino,1.03366368823,left,-1,miss,decision,1,decision1,bolt
510,43,ambulance,1.08357134974,right,-1,miss,arm1,1,arm11,bolt
511,43,trunk,0.300250120461,left,-1,miss,arm1,2,arm12,bolt
512,43,peach,0.133545117918,left,-1,miss,arm1,3,arm13,bolt
513,43,crutches,4.11687280657,right,-1,miss,decision,2,decision2,bolt
514,43,stapler,0.583599422593,right,-1,miss,arm2,1,arm21,bolt
515,43,rose,0.166893966962,right,-1,miss,arm2,2,arm22,bolt
516,43,lion,0.16690121172,left,-1,miss,arm2,3,arm23,bolt
517,44,bolt,0.983583363704,space,1,correct,target,NaN,targetNaN,bolt
518,44,coffeepot,2.70023104316,left,1,correct,path,1,path1,bolt
519,44,mosquito,0.0835915743373,left,1,correct,path,2,path2,bolt
520,44,canoe,0.0169457960874,right,1,correct,path,3,path3,bolt
521,44,domino,0.65033213608,left,1,correct,decision,1,decision1,bolt
522,44,ambulance,0.666973959655,right,1,correct,arm1,1,arm11,bolt
523,44,trunk,0.133630242664,left,1,correct,arm1,2,arm12,bolt
524,44,peach,0.100310371723,left,1,correct,arm1,3,arm13,bolt
525,44,garlic,0.183635404333,left,1,correct,decision,2,decision2,bolt
526,44,mug,0.550395164639,right,1,correct,arm2,1,arm21,bolt
527,44,branch,0.183633592911,right,1,correct,arm2,2,arm22,bolt
528,44,bolt,0.466913165059,right,1,correct,arm2,3,arm23,bolt
529,45,bolt,0.883593264502,space,-1,miss,target,NaN,targetNaN,bolt
530,45,coffeepot,3.46697172616,left,-1,miss,path,1,path1,bolt
531,45,mosquito,0.100245170761,left,-1,miss,path,2,path2,bolt
532,45,canoe,0.0669228849001,right,-1,miss,path,3,path3,bolt
533,45,domino,0.200286585838,left,-1,miss,decision,1,decision1,bolt
534,45,ambulance,0.550274722278,right,-1,miss,arm1,1,arm11,bolt
535,45,trunk,0.150231616572,left,-1,miss,arm1,2,arm12,bolt
536,45,peach,0.0836003283039,left,-1,miss,arm1,3,arm13,bolt
537,45,crutches,0.116993852425,left,-1,miss,decision,2,decision2,bolt
538,45,stapler,0.533372696023,right,-1,miss,arm2,1,arm21,bolt
539,45,rose,0.20027451124,right,-1,miss,arm2,2,arm22,bolt
540,45,lion,0.38359809434,left,-1,miss,arm2,3,arm23,bolt
541,46,lion,0.900266179815,space,-1,miss,target,NaN,targetNaN,lion
542,46,coffeepot,7.23347273236,left,-1,miss,path,1,path1,lion
543,46,mosquito,0.0835698405281,left,-1,miss,path,2,path2,lion
544,46,canoe,0.133575303946,right,-1,miss,path,3,path3,lion
545,46,domino,7.26687350078,right,-1,miss,decision,1,decision1,lion
546,46,ambulance,0.933584541082,right,-1,miss,arm1,1,arm11,lion
547,46,trunk,0.350256188307,left,-1,miss,arm1,2,arm12,lion
548,46,peach,0.0833681980148,left,-1,miss,arm1,3,arm13,lion
549,46,garlic,1.58363232529,left,-1,miss,decision,2,decision2,lion
550,46,mug,0.816919111647,right,-1,miss,arm2,1,arm21,lion
551,46,branch,0.133572285064,right,-1,miss,arm2,2,arm22,lion
552,46,bolt,0.416911927518,right,-1,miss,arm2,3,arm23,lion
553,47,bolt,0.333589310292,space,-1,miss,target,NaN,targetNaN,bolt
554,47,coffeepot,0.716939880047,left,-1,miss,path,1,path1,bolt
555,47,mosquito,0.083543880377,left,-1,miss,path,2,path2,bolt
556,47,canoe,0.0669959350489,right,-1,miss,path,3,path3,bolt
557,47,goose,2.03357131965,left,-1,miss,decision,1,decision1,bolt
558,47,sailor,1.51691742148,left,-1,miss,arm1,1,arm11,bolt
559,47,cooker,0.266922099981,right,-1,miss,arm1,2,arm12,bolt
560,47,tooth,0.100225851405,left,-1,miss,arm1,3,arm13,bolt
561,47,crutches,1.58368122671,right,-1,miss,decision,2,decision2,bolt
562,47,stapler,1.33364153188,right,-1,miss,arm2,1,arm21,bolt
563,47,rose,0.700413668063,right,-1,miss,arm2,2,arm22,bolt
564,47,lion,0.366930914577,left,-1,miss,arm2,3,arm23,bolt
565,48,lion,0.583559576888,space,-1,miss,target,NaN,targetNaN,lion
566,48,coffeepot,3.25023137499,left,-1,miss,path,1,path1,lion
567,48,mosquito,0.0335302664898,left,-1,miss,path,2,path2,lion
568,48,canoe,0.100242151879,right,-1,miss,path,3,path3,lion
569,48,domino,2.83359051775,left,-1,miss,decision,1,decision1,lion
570,48,ambulance,0.783583846875,right,-1,miss,arm1,1,arm11,lion
571,48,trunk,0.183560844976,left,-1,miss,arm1,2,arm12,lion
572,48,peach,0.100227360614,left,-1,miss,arm1,3,arm13,lion
573,48,garlic,1.45028371783,right,-1,miss,decision,2,decision2,lion
574,48,mug,0.466978970915,right,-1,miss,arm2,1,arm21,lion
575,48,branch,0.150579359382,right,-1,miss,arm2,2,arm22,lion
576,48,bolt,0.500248430297,right,-1,miss,arm2,3,arm23,lion
577,49,lion,0.516898404341,space,1,correct,target,NaN,targetNaN,lion
578,49,coffeepot,0.750475881621,left,1,correct,path,1,path1,lion
579,49,mosquito,0.0502442345023,left,1,correct,path,2,path2,lion
580,49,canoe,0.113698752597,right,1,correct,path,3,path3,lion
581,49,goose,1.60027022474,left,1,correct,decision,1,decision1,lion
582,49,sailor,2.16688883537,left,1,correct,arm1,1,arm11,lion
583,49,cooker,0.150243992917,right,1,correct,arm1,2,arm12,lion
584,49,tooth,0.266930250451,left,1,correct,arm1,3,arm13,lion
585,49,crutches,1.06693888362,left,1,correct,decision,2,decision2,lion
586,49,stapler,0.833651191555,right,1,correct,arm2,1,arm21,lion
587,49,rose,0.150269953068,right,1,correct,arm2,2,arm22,lion
588,49,lion,0.433631932829,left,1,correct,arm2,3,arm23,lion
589,50,bolt,0.616707991343,space,0,wrong,target,NaN,targetNaN,bolt
590,50,coffeepot,0.650269349571,left,0,wrong,path,1,path1,bolt
591,50,mosquito,0.0502372914925,left,0,wrong,path,2,path2,bolt
592,50,canoe,0.0836117989384,right,0,wrong,path,3,path3,bolt
593,50,goose,0.616992342751,left,0,wrong,decision,1,decision1,bolt
594,50,sailor,3.06687458744,left,0,wrong,arm1,1,arm11,bolt
595,50,cooker,0.116900577676,right,0,wrong,arm1,2,arm12,bolt
596,50,tooth,0.100221021567,left,0,wrong,arm1,3,arm13,bolt
597,50,garlic,1.16686498839,right,0,wrong,decision,2,decision2,bolt
598,50,mug,0.983549555764,right,0,wrong,arm2,1,arm21,bolt
599,50,branch,0.33359776251,right,0,wrong,arm2,2,arm22,bolt
600,50,bolt,0.383797321934,right,0,wrong,arm2,3,arm23,bolt
