pic_index,trial_num,pic_name,rt,resp,feedback_code,feedback,segment,segment_index,pic_type,trial_target
1,1,lion,0.833589612041,space,-1,miss,target,NaN,targetNaN,lion
2,1,coffeepot,1.416702135,left,-1,miss,path,1,path1,lion
3,1,mosquito,0.400243540294,left,-1,miss,path,2,path2,lion
4,1,canoe,0.0669268094935,right,-1,miss,path,3,path3,lion
5,1,goose,2.45022364799,left,-1,miss,decision,1,decision1,lion
6,1,sailor,1.25023892196,left,-1,miss,arm1,1,arm11,lion
7,1,cooker,0.416911625769,right,-1,miss,arm1,2,arm12,lion
8,1,tooth,0.100254527759,left,-1,miss,arm1,3,arm13,lion
9,1,garlic,1.13367733266,left,-1,miss,decision,2,decision2,lion
10,1,mug,1.73358109966,right,-1,miss,arm2,1,arm21,lion
11,1,branch,0.550229141489,right,-1,miss,arm2,2,arm22,lion
12,1,bolt,0.966925843153,right,-1,miss,arm2,3,arm23,lion
13,2,bolt,0.683632385451,space,0,wrong,target,NaN,targetNaN,bolt
14,2,coffeepot,1.51691681752,left,0,wrong,path,1,path1,bolt
15,2,mosquito,0.233564799186,left,0,wrong,path,2,path2,bolt
16,2,canoe,0.116909331642,right,0,wrong,path,3,path3,bolt
17,2,goose,1.45025473973,left,0,wrong,decision,1,decision1,bolt
18,2,sailor,1.11692200974,left,0,wrong,arm1,1,arm11,bolt
19,2,cooker,0.233585325535,right,0,wrong,arm1,2,arm12,bolt
20,2,tooth,0.166916002519,left,0,wrong,arm1,3,arm13,bolt
21,2,garlic,0.450415026862,left,0,wrong,decision,2,decision2,bolt
22,2,mug,0.617106446065,right,0,wrong,arm2,1,arm21,bolt
23,2,branch,0.417105117813,right,0,wrong,arm2,2,arm22,bolt
24,2,bolt,0.500268051401,right,0,wrong,arm2,3,arm23,bolt
25,3,bolt,0.56693103537,space,-1,miss,target,NaN,targetNaN,bolt
26,3,coffeepot,1.88359809434,left,-1,miss,path,1,path1,bolt
27,3,mosquito,0.583588254172,left,-1,miss,path,2,path2,bolt
28,3,canoe,0.114142485894,right,-1,miss,path,3,path3,bolt
29,3,goose,1.05024936609,right,-1,miss,decision,1,decision1,bolt
30,3,sailor,1.21694199275,left,-1,miss,arm1,1,arm11,bolt
31,3,cooker,0.166950112674,right,-1,miss,arm1,2,arm12,bolt
32,3,tooth,0.150201129261,left,-1,miss,arm1,3,arm13,bolt
33,3,crutches,0.833641833626,left,-1,miss,decision,2,decision2,bolt
34,3,stapler,1.1836731364,right,-1,miss,arm2,1,arm21,bolt
35,3,rose,0.450199197046,right,-1,miss,arm2,2,arm22,bolt
36,3,lion,0.366932121571,left,-1,miss,arm2,3,arm23,bolt
37,4,lion,2.76686776569,space,1,correct,target,NaN,targetNaN,lion
38,4,coffeepot,0.850446963683,left,1,correct,path,1,path1,lion
39,4,mosquito,0.316901302431,left,1,correct,path,2,path2,lion
40,4,canoe,0.200251267757,right,1,correct,path,3,path3,lion
41,4,goose,0.733751952183,left,1,correct,decision,1,decision1,lion
42,4,sailor,1.00009206729,left,1,correct,arm1,1,arm11,lion
43,4,cooker,0.216924183071,right,1,correct,arm1,2,arm12,lion
44,4,tooth,0.100250302348,left,1,correct,arm1,3,arm13,lion
45,4,crutches,0.966985309962,right,1,correct,decision,2,decision2,lion
46,4,stapler,0.867127727251,right,1,correct,arm2,1,arm21,lion
47,4,rose,0.216947426554,right,1,correct,arm2,2,arm22,lion
48,4,lion,0.133619073313,left,1,correct,arm2,3,arm23,lion
49,5,bolt,0.666978487745,space,1,correct,target,NaN,targetNaN,bolt
50,5,coffeepot,2.50022126315,left,1,correct,path,1,path1,bolt
51,5,mosquito,0.500259599648,left,1,correct,path,2,path2,bolt
52,5,canoe,0.166891552042,right,1,correct,path,3,path3,bolt
53,5,domino,0.916706059594,right,1,correct,decision,1,decision1,bolt
54,5,ambulance,0.766913346015,right,1,correct,arm1,1,arm11,bolt
55,5,trunk,0.433615632355,left,1,correct,arm1,2,arm12,bolt
56,5,peach,0.133603376802,left,1,correct,arm1,3,arm13,bolt
57,5,garlic,1.21698576258,right,1,correct,decision,2,decision2,bolt
58,5,mug,0.766912440769,right,1,correct,arm2,1,arm21,bolt
59,5,branch,0.500268654898,right,1,correct,arm2,2,arm22,bolt
60,5,bolt,0.466922522988,right,1,correct,arm2,3,arm23,bolt
61,6,bolt,0.633565040771,space,1,correct,target,NaN,targetNaN,bolt
62,6,coffeepot,0.96689475188,left,1,correct,path,1,path1,bolt
63,6,mosquito,0.06691714935,left,1,correct,path,2,path2,bolt
64,6,canoe,0.11435710825,right,1,correct,path,3,path3,bolt
65,6,domino,1.13359250966,left,1,correct,decision,1,decision1,bolt
66,6,ambulance,0.467006440274,right,1,correct,arm1,1,arm11,bolt
67,6,trunk,0.216924787033,left,1,correct,arm1,2,arm12,bolt
68,6,peach,0.13358798204,left,1,correct,arm1,3,arm13,bolt
69,6,garlic,0.666976978071,right,1,correct,decision,2,decision2,bolt
70,6,mug,0.566940091085,right,1,correct,arm2,1,arm21,bolt
71,6,branch,0.316946581006,right,1,correct,arm2,2,arm22,bolt
72,6,bolt,0.483590306249,right,1,correct,arm2,3,arm23,bolt
73,7,lion,0.616943139583,space,1,correct,target,NaN,targetNaN,lion
74,7,coffeepot,0.900290932041,left,1,correct,path,1,path1,lion
75,7,mosquito,0.250243148301,left,1,correct,path,2,path2,lion
76,7,canoe,0.11423002556,right,1,correct,path,3,path3,lion
77,7,goose,1.88365574973,right,1,correct,decision,1,decision1,lion
78,7,sailor,0.867019661702,left,1,correct,arm1,1,arm11,lion
79,7,cooker,0.100385837257,right,1,correct,arm1,2,arm12,lion
80,7,tooth,0.183613670524,left,1,correct,arm1,3,arm13,lion
81,7,crutches,0.433837499004,left,1,correct,decision,2,decision2,lion
82,7,stapler,0.483598758467,right,1,correct,arm2,1,arm21,lion
83,7,rose,0.200063813012,right,1,correct,arm2,2,arm22,lion
84,7,lion,0.35025437735,left,1,correct,arm2,3,arm23,lion
85,8,bolt,0.483611134812,space,1,correct,target,NaN,targetNaN,bolt
86,8,coffeepot,0.850294524804,left,1,correct,path,1,path1,bolt
87,8,mosquito,0.0502433292568,left,1,correct,path,2,path2,bolt
88,8,canoe,0.114236666355,right,1,correct,path,3,path3,bolt
89,8,domino,1.46693942696,left,1,correct,decision,1,decision1,bolt
90,8,ambulance,0.500237261411,right,1,correct,arm1,1,arm11,bolt
91,8,trunk,0.183565070853,left,1,correct,arm1,2,arm12,bolt
92,8,peach,0.200227420777,left,1,correct,arm1,3,arm13,bolt
93,8,garlic,0.833698281553,left,1,correct,decision,2,decision2,bolt
94,8,mug,0.800244988874,right,1,correct,arm2,1,arm21,bolt
95,8,branch,0.183625745121,right,1,correct,arm2,2,arm22,bolt
96,8,bolt,0.43361472711,right,1,correct,arm2,3,arm23,bolt
97,9,lion,1.91691796482,space,1,correct,target,NaN,targetNaN,lion
98,9,coffeepot,0.650254256558,left,1,correct,path,1,path1,lion
99,9,mosquito,0.166716775391,left,1,correct,path,2,path2,lion
100,9,canoe,0.066896321252,right,1,correct,path,3,path3,lion
101,9,goose,0.416893816087,right,1,correct,decision,1,decision1,lion
102,9,sailor,1.03358792188,left,1,correct,arm1,1,arm11,lion
103,9,cooker,0.13356413506,right,1,correct,arm1,2,arm12,lion
104,9,tooth,0.0837980462238,left,1,correct,arm1,3,arm13,lion
105,9,crutches,1.05044859368,right,1,correct,decision,2,decision2,lion
106,9,stapler,0.750416415278,right,1,correct,arm2,1,arm21,lion
107,9,rose,0.16687162919,right,1,correct,arm2,2,arm22,lion
108,9,lion,0.433551034424,left,1,correct,arm2,3,arm23,lion
109,10,lion,0.517139892094,space,1,correct,target,NaN,targetNaN,lion
110,10,coffeepot,1.51692828862,left,1,correct,path,1,path1,lion
111,10,mosquito,0.0502237081528,left,1,correct,path,2,path2,lion
112,10,canoe,0.0669089998119,right,1,correct,path,3,path3,lion
113,10,goose,0.366946913302,left,1,correct,decision,1,decision1,lion
114,10,sailor,1.45006426563,left,1,correct,arm1,1,arm11,lion
115,10,cooker,0.0836338349618,right,1,correct,arm1,2,arm12,lion
116,10,tooth,0.100262376014,left,1,correct,arm1,3,arm13,lion
117,10,crutches,1.45024930593,right,1,correct,decision,2,decision2,lion
118,10,stapler,0.750015243888,right,1,correct,arm2,1,arm21,lion
119,10,rose,0.216924787033,right,1,correct,arm2,2,arm22,lion
120,10,lion,0.333607723936,left,1,correct,arm2,3,arm23,lion
121,11,lion,0.816906735767,space,1,correct,target,NaN,targetNaN,lion
122,11,coffeepot,0.450579540338,left,1,correct,path,1,path1,lion
123,11,mosquito,0.0673023224808,left,1,correct,path,2,path2,lion
124,11,canoe,0.116936499253,right,1,correct,path,3,path3,lion
125,11,goose,0.417135002092,right,1,correct,decision,1,decision1,lion
126,11,sailor,0.533919967711,left,1,correct,arm1,1,arm11,lion
127,11,cooker,0.150321571156,right,1,correct,arm1,2,arm12,lion
128,11,tooth,0.133587378543,left,1,correct,arm1,3,arm13,lion
129,11,crutches,0.850293619093,left,1,correct,decision,2,decision2,lion
130,11,stapler,0.633618771564,right,1,correct,arm2,1,arm21,lion
131,11,rose,0.200250060298,right,1,correct,arm2,2,arm22,lion
132,11,lion,0.250254920218,left,1,correct,arm2,3,arm23,lion
133,12,lion,0.600242453627,space,1,correct,target,NaN,targetNaN,lion
134,12,coffeepot,2.36699098442,left,1,correct,path,1,path1,lion
135,12,mosquito,0.116899974179,left,1,correct,path,2,path2,lion
136,12,canoe,0.133565342985,right,1,correct,path,3,path3,lion
137,12,goose,0.95026198402,right,1,correct,decision,1,decision1,lion
138,12,sailor,0.483635283541,left,1,correct,arm1,1,arm11,lion
139,12,cooker,0.0836718692444,right,1,correct,arm1,2,arm12,lion
140,12,tooth,0.10023611458,left,1,correct,arm1,3,arm13,lion
141,12,crutches,1.2002751152,left,1,correct,decision,2,decision2,lion
142,12,stapler,0.633597339503,right,1,correct,arm2,1,arm21,lion
143,12,rose,0.200349975843,right,1,correct,arm2,2,arm22,lion
144,12,lion,0.300250724889,left,1,correct,arm2,3,arm23,lion
145,13,bolt,0.633786907885,space,1,correct,target,NaN,targetNaN,bolt
146,13,coffeepot,0.783635162748,left,1,correct,path,1,path1,bolt
147,13,mosquito,0.0669123199768,left,1,correct,path,2,path2,bolt
148,13,canoe,0.100221323781,right,1,correct,path,3,path3,bolt
149,13,domino,1.11730567366,right,1,correct,decision,1,decision1,bolt
150,13,ambulance,0.883615300059,right,1,correct,arm1,1,arm11,bolt
151,13,trunk,0.183628763538,left,1,correct,arm1,2,arm12,bolt
152,13,peach,0.234003099613,left,1,correct,arm1,3,arm13,bolt
153,13,garlic,0.599862412084,right,1,correct,decision,2,decision2,bolt
154,13,mug,1.31691277307,right,1,correct,arm2,1,arm21,bolt
155,13,branch,0.266946852673,right,1,correct,arm2,2,arm22,bolt
156,13,bolt,0.517074388452,right,1,correct,arm2,3,arm23,bolt
157,14,bolt,0.800251630601,space,1,correct,target,NaN,targetNaN,bolt
158,14,coffeepot,0.550244838465,left,1,correct,path,1,path1,bolt
159,14,mosquito,0.133604282513,left,1,correct,path,2,path2,bolt
160,14,canoe,0.133563833311,right,1,correct,path,3,path3,bolt
161,14,domino,1.18336403277,left,1,correct,decision,1,decision1,bolt
162,14,ambulance,0.666963394731,right,1,correct,arm1,1,arm11,bolt
163,14,trunk,0.116901482921,left,1,correct,arm1,2,arm12,bolt
164,14,peach,0.283564829733,left,1,correct,arm1,3,arm13,bolt
165,14,garlic,0.366963213775,right,1,correct,decision,2,decision2,bolt
166,14,mug,1.00021462189,right,1,correct,arm2,1,arm21,bolt
167,14,branch,0.0335432463326,right,1,correct,arm2,2,arm22,bolt
168,14,bolt,0.583605158143,right,1,correct,arm2,3,arm23,bolt
169,15,bolt,0.750282389577,space,1,correct,target,NaN,targetNaN,bolt
170,15,coffeepot,0.750266391318,left,1,correct,path,1,path1,bolt
171,15,mosquito,0.166906041559,left,1,correct,path,2,path2,bolt
172,15,canoe,0.116892427206,right,1,correct,path,3,path3,bolt
173,15,domino,1.30013511237,left,1,correct,decision,1,decision1,bolt
174,15,ambulance,0.433581220452,right,1,correct,arm1,1,arm11,bolt
175,15,trunk,0.117234132718,left,1,correct,arm1,2,arm12,bolt
176,15,peach,0.266937796958,left,1,correct,arm1,3,arm13,bolt
177,15,garlic,0.500311217271,right,1,correct,decision,2,decision2,bolt
178,15,mug,0.450508301612,right,1,correct,arm2,1,arm21,bolt
179,15,branch,0.350271281321,right,1,correct,arm2,2,arm22,bolt
180,15,bolt,0.350284261629,right,1,correct,arm2,3,arm23,bolt
181,16,lion,0.416921285447,space,1,correct,target,NaN,targetNaN,lion
182,16,coffeepot,0.750298086088,left,1,correct,path,1,path1,lion
183,16,mosquito,0.366882315371,left,1,correct,path,2,path2,lion
184,16,canoe,0.0835450878367,right,1,correct,path,3,path3,lion
185,16,goose,1.01692194957,right,1,correct,decision,1,decision1,lion
186,16,sailor,0.70023134537,left,1,correct,arm1,1,arm11,lion
187,16,cooker,0.116885182913,right,1,correct,arm1,2,arm12,lion
188,16,tooth,0.166891250294,left,1,correct,arm1,3,arm13,lion
189,16,crutches,0.900292743463,right,1,correct,decision,2,decision2,lion
190,16,stapler,0.766916364897,right,1,correct,arm2,1,arm21,lion
191,16,rose,0.0502511775121,right,1,correct,arm2,2,arm22,lion
192,16,lion,0.183609746397,left,1,correct,arm2,3,arm23,lion
193,17,lion,0.333589310292,space,1,correct,target,NaN,targetNaN,lion
194,17,coffeepot,0.566914433148,left,1,correct,path,1,path1,lion
195,17,mosquito,0.0335571323521,left,1,correct,path,2,path2,lion
196,17,canoe,0.100247283466,right,1,correct,path,3,path3,lion
197,17,goose,1.01706563449,left,1,correct,decision,1,decision1,lion
198,17,sailor,0.633720498532,left,1,correct,arm1,1,arm11,lion
199,17,cooker,0.066893001087,right,1,correct,arm1,2,arm12,lion
200,17,tooth,0.116884881165,left,1,correct,arm1,3,arm13,lion
201,17,crutches,0.316971333232,right,1,correct,decision,2,decision2,lion
202,17,stapler,0.600253018551,right,1,correct,arm2,1,arm21,lion
203,17,rose,0.216889771167,right,1,correct,arm2,2,arm22,lion
204,17,lion,0.166913588066,left,1,correct,arm2,3,arm23,lion
205,18,bolt,0.683598275296,space,1,correct,target,NaN,targetNaN,bolt
206,18,coffeepot,0.600263885688,left,1,correct,path,1,path1,bolt
207,18,mosquito,0.000232733786106,left,1,correct,path,2,path2,bolt
208,18,canoe,0.216775668319,right,1,correct,path,3,path3,bolt
209,18,domino,1.00027982425,right,1,correct,decision,1,decision1,bolt
210,18,ambulance,0.533666405361,right,1,correct,arm1,1,arm11,bolt
211,18,trunk,0.100873340387,left,1,correct,arm1,2,arm12,bolt
212,18,peach,0.300261591561,left,1,correct,arm1,3,arm13,bolt
213,18,garlic,0.26697009569,left,1,correct,decision,2,decision2,bolt
214,18,mug,0.366952044424,right,1,correct,arm2,1,arm21,bolt
215,18,branch,0.100266300607,right,1,correct,arm2,2,arm22,bolt
216,18,bolt,0.250344573054,right,1,correct,arm2,3,arm23,bolt
217,19,bolt,0.50026593823,space,1,correct,target,NaN,targetNaN,bolt
218,19,coffeepot,0.850236265454,left,1,correct,path,1,path1,bolt
219,19,mosquito,0.0502321603708,left,1,correct,path,2,path2,bolt
220,19,canoe,0.113346180413,right,1,correct,path,3,path3,bolt
221,19,domino,0.800255554263,left,1,correct,decision,1,decision1,bolt
222,19,ambulance,0.316848174669,right,1,correct,arm1,1,arm11,bolt
223,19,trunk,0.0835408619605,left,1,correct,arm1,2,arm12,bolt
224,19,peach,0.166792240459,left,1,correct,arm1,3,arm13,bolt
225,19,garlic,0.300416747574,right,1,correct,decision,2,decision2,bolt
226,19,mug,0.467171557248,right,1,correct,arm2,1,arm21,bolt
227,19,branch,0.267183510587,right,1,correct,arm2,2,arm22,bolt
228,19,bolt,0.46705051139,right,1,correct,arm2,3,arm23,bolt
229,20,lion,0.517046617344,space,1,correct,target,NaN,targetNaN,lion
230,20,coffeepot,1.35047654575,left,1,correct,path,1,path1,lion
231,20,mosquito,0.100312183145,left,1,correct,path,2,path2,lion
232,20,canoe,0.116907822434,right,1,correct,path,3,path3,lion
233,20,goose,0.683583484497,left,1,correct,decision,1,decision1,lion
234,20,sailor,0.733901674859,left,1,correct,arm1,1,arm11,lion
235,20,cooker,0.250298086554,right,1,correct,arm1,2,arm12,lion
236,20,tooth,0.0669249985367,left,1,correct,arm1,3,arm13,lion
237,20,crutches,0.500268051401,left,1,correct,decision,2,decision2,lion
238,20,stapler,0.483634981792,right,1,correct,arm2,1,arm21,lion
239,20,rose,0.133425581735,right,1,correct,arm2,2,arm22,lion
240,20,lion,0.716893091332,left,1,correct,arm2,3,arm23,lion
