pic_index,trial_num,pic_name,rt,resp,feedback_code,feedback,segment,segment_index,pic_type,trial_target
1,1,arc,10.0837743999,space,-1,miss,target,NaN,targetNaN,arc
2,1,trophy,2.48364164238,right,-1,miss,path,1,path1,arc
3,1,astronaut,0.966977501055,right,-1,miss,path,2,path2,arc
4,1,robot,0.916989001911,right,-1,miss,path,3,path3,arc
5,1,pigeon,12.2003699588,left,-1,miss,decision,1,decision1,arc
6,1,bus,4.55020402675,right,-1,miss,arm1,1,arm11,arc
7,1,deer,1.18353707832,left,-1,miss,arm1,2,arm12,arc
8,1,fist,5.65046235779,left,-1,miss,arm1,3,arm13,arc
9,1,stepladder,10.6835011572,right,-1,miss,decision,2,decision2,arc
10,1,calc,4.75029718038,right,-1,miss,arm2,1,arm21,arc
11,1,tongue,1.13369769766,right,-1,miss,arm2,2,arm22,arc
12,1,beaver,1.15030780598,left,-1,miss,arm2,3,arm23,arc
13,2,beaver,7.96690716804,space,-1,miss,target,NaN,targetNaN,beaver
14,2,trophy,5.11666860874,right,-1,miss,path,1,path1,beaver
15,2,astronaut,1.3336501848,right,-1,miss,path,2,path2,beaver
16,2,robot,0.900359574705,right,-1,miss,path,3,path3,beaver
17,2,watch,5.18359352602,left,-1,miss,decision,1,decision1,beaver
18,2,clover,8.45021284116,left,-1,miss,arm1,1,arm11,beaver
19,2,radio,1.08356370218,right,-1,miss,arm1,2,arm12,beaver
20,2,wing,1.15028939256,left,-1,miss,arm1,3,arm13,beaver
21,2,holly,3.11671298184,right,-1,miss,decision,2,decision2,beaver
22,2,match,3.41688667191,right,-1,miss,arm2,1,arm21,beaver
23,2,baby,1.00059104036,left,-1,miss,arm2,2,arm22,beaver
24,2,arc,2.60030210065,left,-1,miss,arm2,3,arm23,beaver
25,3,arc,2.70047108177,space,-1,miss,target,NaN,targetNaN,arc
26,3,trophy,2.91694281739,right,-1,miss,path,1,path1,arc
27,3,astronaut,0.733637265395,right,-1,miss,path,2,path2,arc
28,3,robot,1.80024885293,right,-1,miss,path,3,path3,arc
29,3,watch,8.11683221627,right,-1,miss,decision,1,decision1,arc
30,3,clover,7.78418390243,left,-1,miss,arm1,1,arm11,arc
31,3,radio,0.733815966174,right,-1,miss,arm1,2,arm12,arc
32,3,wing,0.733639378333,left,-1,miss,arm1,3,arm13,arc
33,3,stepladder,2.5502239496,left,-1,miss,decision,2,decision2,arc
34,3,calc,5.70025766711,right,-1,miss,arm2,1,arm21,arc
35,3,tongue,0.566928841406,right,-1,miss,arm2,2,arm22,arc
36,3,beaver,0.700302342186,left,-1,miss,arm2,3,arm23,arc
37,4,beaver,8.28333205543,space,-1,miss,target,NaN,targetNaN,beaver
38,4,trophy,1.03369232453,right,-1,miss,path,1,path1,beaver
39,4,astronaut,0.500274390215,right,-1,miss,path,2,path2,beaver
40,4,robot,4.43365072832,right,-1,miss,path,3,path3,beaver
41,4,pigeon,2.40069403499,left,-1,miss,decision,1,decision1,beaver
42,4,bus,1.16699971794,right,-1,miss,arm1,1,arm11,beaver
43,4,deer,8.70018190052,left,-1,miss,arm1,2,arm12,beaver
44,4,fist,4.45049749431,left,-1,miss,arm1,3,arm13,beaver
45,4,holly,4.41690116096,left,-1,miss,decision,2,decision2,beaver
46,4,match,1.60032353294,right,-1,miss,arm2,1,arm21,beaver
47,4,baby,0.950400597649,left,-1,miss,arm2,2,arm22,beaver
48,4,arc,1.25029718038,left,-1,miss,arm2,3,arm23,beaver
49,5,arc,2.183578433,space,0,wrong,target,NaN,targetNaN,arc
50,5,trophy,2.81699449592,right,0,wrong,path,1,path1,arc
51,5,astronaut,0.533580334857,right,0,wrong,path,2,path2,arc
52,5,robot,1.06696415902,right,0,wrong,path,3,path3,arc
53,5,pigeon,3.76694351179,left,0,wrong,decision,1,decision1,arc
54,5,bus,1.18353798403,right,0,wrong,arm1,1,arm11,arc
55,5,deer,2.76709957328,left,0,wrong,arm1,2,arm12,arc
56,5,fist,0.983596363338,left,0,wrong,arm1,3,arm13,arc
57,5,holly,2.43362416467,left,0,wrong,decision,2,decision2,arc
58,5,match,0.766949851066,right,0,wrong,arm2,1,arm21,arc
59,5,baby,0.866963374196,left,0,wrong,arm2,2,arm22,arc
60,5,arc,1.2005456409,left,0,wrong,arm2,3,arm23,arc
61,6,arc,29.8665830314,space,0,wrong,target,NaN,targetNaN,arc
62,6,trophy,0.716982482001,right,0,wrong,path,1,path1,arc
63,6,astronaut,0.500327215297,right,0,wrong,path,2,path2,arc
64,6,robot,1.03359391843,right,0,wrong,path,3,path3,arc
65,6,pigeon,4.18359956308,right,0,wrong,decision,1,decision1,arc
66,6,bus,4.61688141944,right,0,wrong,arm1,1,arm11,arc
67,6,deer,0.633559446083,left,0,wrong,arm1,2,arm12,arc
68,6,fist,0.533607803984,left,0,wrong,arm1,3,arm13,arc
69,6,holly,3.68368106522,left,0,wrong,decision,2,decision2,arc
70,6,match,0.833863599459,right,0,wrong,arm2,1,arm21,arc
71,6,baby,2.4835396139,left,0,wrong,arm2,2,arm22,arc
72,6,arc,0.966729674721,left,0,wrong,arm2,3,arm23,arc
73,7,arc,3.76687287679,space,-1,miss,target,NaN,targetNaN,arc
74,7,trophy,7.35016882978,right,-1,miss,path,1,path1,arc
75,7,astronaut,0.700389579637,right,-1,miss,path,2,path2,arc
76,7,robot,2.06706830044,right,-1,miss,path,3,path3,arc
77,7,watch,0.0169982991647,right,-1,miss,decision,1,decision1,arc
78,7,clover,5.3004752472,left,-1,miss,arm1,1,arm11,arc
79,7,radio,3.5502212327,right,-1,miss,arm1,2,arm12,arc
80,7,wing,0.983932936564,left,-1,miss,arm1,3,arm13,arc
81,7,stepladder,1.95035924274,right,-1,miss,decision,2,decision2,arc
82,7,calc,1.23367469595,right,-1,miss,arm2,1,arm21,arc
83,7,tongue,0.633649400203,right,-1,miss,arm2,2,arm22,arc
84,7,beaver,0.80033126031,left,-1,miss,arm2,3,arm23,arc
85,8,beaver,13.9837011085,space,-1,miss,target,NaN,targetNaN,beaver
86,8,trophy,1.05028432119,right,-1,miss,path,1,path1,beaver
87,8,astronaut,0.566916465294,right,-1,miss,path,2,path2,beaver
88,8,robot,1.00029733125,right,-1,miss,path,3,path3,beaver
89,8,pigeon,2.46697780304,left,-1,miss,decision,1,decision1,beaver
90,8,bus,4.08335391013,right,-1,miss,arm1,1,arm11,beaver
91,8,deer,0.583787380019,left,-1,miss,arm1,2,arm12,beaver
92,8,fist,2.43406518106,left,-1,miss,arm1,3,arm13,beaver
93,8,holly,3.80035118293,right,-1,miss,decision,2,decision2,beaver
94,8,match,0.933651935542,right,-1,miss,arm2,1,arm21,beaver
95,8,baby,1.71695320169,left,-1,miss,arm2,2,arm22,beaver
96,8,arc,1.01674926537,left,-1,miss,arm2,3,arm23,beaver
97,9,beaver,14.5334668355,space,0,wrong,target,NaN,targetNaN,beaver
98,9,trophy,0.750327064656,right,0,wrong,path,1,path1,beaver
99,9,astronaut,7.60014000256,right,0,wrong,path,2,path2,beaver
100,9,robot,1.11703778245,right,0,wrong,path,3,path3,beaver
101,9,watch,2.250386531,left,0,wrong,decision,1,decision1,beaver
102,9,clover,2.6003126658,left,0,wrong,arm1,1,arm11,beaver
103,9,radio,1.55026560603,right,0,wrong,arm1,2,arm12,beaver
104,9,wing,0.633386782371,left,0,wrong,arm1,3,arm13,beaver
105,9,stepladder,4.7002905698,left,0,wrong,decision,2,decision2,beaver
106,9,calc,4.88354601339,right,0,wrong,arm2,1,arm21,beaver
107,9,tongue,0.583718555979,right,0,wrong,arm2,2,arm22,beaver
108,9,beaver,0.816934727598,left,0,wrong,arm2,3,arm23,beaver
109,10,beaver,8.61694541341,space,1,correct,target,NaN,targetNaN,beaver
110,10,trophy,4.18355428427,right,1,correct,path,1,path1,beaver
111,10,astronaut,5.51696237805,right,1,correct,path,2,path2,beaver
112,10,robot,1.18370883632,right,1,correct,path,3,path3,beaver
113,10,pigeon,1.71702112001,left,1,correct,decision,1,decision1,beaver
114,10,bus,4.66687082406,right,1,correct,arm1,1,arm11,beaver
115,10,deer,1.08372338582,left,1,correct,arm1,2,arm12,beaver
116,10,fist,1.6169297169,left,1,correct,arm1,3,arm13,beaver
117,10,stepladder,2.30021776119,left,1,correct,decision,2,decision2,beaver
118,10,calc,0.933684536489,right,1,correct,arm2,1,arm21,beaver
119,10,tongue,0.583820886211,right,1,correct,arm2,2,arm22,beaver
120,10,beaver,1.15052937064,left,1,correct,arm2,3,arm23,beaver
121,11,arc,9.11691734055,space,-1,miss,target,NaN,targetNaN,arc
122,11,trophy,1.36690330412,right,-1,miss,path,1,path1,arc
123,11,astronaut,1.76687136735,right,-1,miss,path,2,path2,arc
124,11,robot,0.517053237651,right,-1,miss,path,3,path3,arc
125,11,pigeon,4.95019835187,left,-1,miss,decision,1,decision1,arc
126,11,bus,3.21713793953,right,-1,miss,arm1,1,arm11,arc
127,11,deer,0.76693415409,left,-1,miss,arm1,2,arm12,arc
128,11,fist,5.41679883073,left,-1,miss,arm1,3,arm13,arc
129,11,stepladder,2.15080768499,left,-1,miss,decision,2,decision2,arc
130,11,calc,3.48354776413,right,-1,miss,arm2,1,arm21,arc
131,11,tongue,0.683602883713,right,-1,miss,arm2,2,arm22,arc
132,11,beaver,4.43370355363,left,-1,miss,arm2,3,arm23,arc
133,12,beaver,3.68355881213,space,-1,miss,target,NaN,targetNaN,beaver
134,12,trophy,0.666935421992,right,-1,miss,path,1,path1,beaver
135,12,astronaut,2.53363346192,right,-1,miss,path,2,path2,beaver
136,12,robot,1.65029905201,right,-1,miss,path,3,path3,beaver
137,12,pigeon,1.15031444677,left,-1,miss,decision,1,decision1,beaver
138,12,bus,1.68361012824,right,-1,miss,arm1,1,arm11,beaver
139,12,deer,0.516995884478,left,-1,miss,arm1,2,arm12,beaver
140,12,fist,3.85023705009,left,-1,miss,arm1,3,arm13,beaver
141,12,holly,2.66690040636,left,-1,miss,decision,2,decision2,beaver
142,12,match,1.83360460424,right,-1,miss,arm2,1,arm21,beaver
143,12,baby,3.16693904437,left,-1,miss,arm2,2,arm22,beaver
144,12,arc,0.950392145431,left,-1,miss,arm2,3,arm23,beaver
145,13,beaver,12.0002457134,space,-1,miss,target,NaN,targetNaN,beaver
146,13,trophy,0.750304425135,right,-1,miss,path,1,path1,beaver
147,13,astronaut,3.00023514847,right,-1,miss,path,2,path2,beaver
148,13,robot,0.550331109436,right,-1,miss,path,3,path3,beaver
149,13,watch,1.56692099315,right,-1,miss,decision,1,decision1,beaver
150,13,clover,1.31698845886,left,-1,miss,arm1,1,arm11,beaver
151,13,radio,1.36722357688,right,-1,miss,arm1,2,arm12,beaver
152,13,wing,2.66695866524,left,-1,miss,arm1,3,arm13,beaver
153,13,holly,5.63339976268,left,-1,miss,decision,2,decision2,beaver
154,13,match,0.866743620718,right,-1,miss,arm2,1,arm21,beaver
155,13,baby,0.866981485859,left,-1,miss,arm2,2,arm22,beaver
156,13,arc,0.933606656734,left,-1,miss,arm2,3,arm23,beaver
157,14,arc,7.41688757716,space,-1,miss,target,NaN,targetNaN,arc
158,14,trophy,7.40031369217,right,-1,miss,path,1,path1,arc
159,14,astronaut,2.66697496548,right,-1,miss,path,2,path2,arc
160,14,robot,0.983545651194,right,-1,miss,path,3,path3,arc
161,14,watch,5.71695803129,left,-1,miss,decision,1,decision1,arc
162,14,clover,1.48367605428,left,-1,miss,arm1,1,arm11,arc
163,14,radio,1.41695519374,right,-1,miss,arm1,2,arm12,arc
164,14,wing,0.583908123663,left,-1,miss,arm1,3,arm13,arc
165,14,stepladder,3.50046939123,left,-1,miss,decision,2,decision2,arc
166,14,calc,0.934252333827,right,-1,miss,arm2,1,arm21,arc
167,14,tongue,0.483562856913,right,-1,miss,arm2,2,arm22,arc
168,14,beaver,0.516997393686,left,-1,miss,arm2,3,arm23,arc
169,15,arc,22.4000178701,space,-1,miss,target,NaN,targetNaN,arc
170,15,trophy,14.6331830276,right,-1,miss,path,1,path1,arc
171,15,astronaut,0.533682363341,right,-1,miss,path,2,path2,arc
172,15,robot,2.50023665768,right,-1,miss,path,3,path3,arc
173,15,watch,1.7670319567,right,-1,miss,decision,1,decision1,arc
174,15,clover,1.68360348744,left,-1,miss,arm1,1,arm11,arc
175,15,radio,0.950309737818,right,-1,miss,arm1,2,arm12,arc
176,15,wing,0.583614716539,left,-1,miss,arm1,3,arm13,arc
177,15,stepladder,1.76701505249,left,-1,miss,decision,2,decision2,arc
178,15,calc,0.950275929645,right,-1,miss,arm2,1,arm21,arc
179,15,tongue,2.2835838059,right,-1,miss,arm2,2,arm22,arc
180,15,beaver,0.617199579254,left,-1,miss,arm2,3,arm23,arc
181,16,arc,3.76704161614,space,1,correct,target,NaN,targetNaN,arc
182,16,trophy,13.5167350781,right,1,correct,path,1,path1,arc
183,16,astronaut,0.600662520854,right,1,correct,path,2,path2,arc
184,16,robot,13.6501088806,right,1,correct,path,3,path3,arc
185,16,watch,21.350035408,left,1,correct,decision,1,decision1,arc
186,16,clover,3.8670146903,left,1,correct,arm1,1,arm11,arc
187,16,radio,0.650372705655,right,1,correct,arm1,2,arm12,arc
188,16,wing,0.850350851193,left,1,correct,arm1,3,arm13,arc
189,16,holly,1.83369003027,right,1,correct,decision,2,decision2,arc
190,16,match,1.91694704373,right,1,correct,arm2,1,arm21,arc
191,16,baby,0.750268202042,left,1,correct,arm2,2,arm22,arc
192,16,arc,9.66694659088,left,1,correct,arm2,3,arm23,arc
193,17,arc,8.41715593031,space,-1,miss,target,NaN,targetNaN,arc
194,17,trophy,1.63364879624,right,-1,miss,path,1,path1,arc
195,17,astronaut,0.650309617165,right,-1,miss,path,2,path2,arc
196,17,robot,0.700325283455,right,-1,miss,path,3,path3,arc
197,17,watch,6.86684081936,right,-1,miss,decision,1,decision1,arc
198,17,clover,1.03382423706,left,-1,miss,arm1,1,arm11,arc
199,17,radio,0.667143101338,right,-1,miss,arm1,2,arm12,arc
200,17,wing,0.550106828101,left,-1,miss,arm1,3,arm13,arc
201,17,stepladder,2.63358329306,right,-1,miss,decision,2,decision2,arc
202,17,calc,2.90019475948,right,-1,miss,arm2,1,arm21,arc
203,17,tongue,4.85032730596,right,-1,miss,arm2,2,arm22,arc
204,17,beaver,0.800218968652,left,-1,miss,arm2,3,arm23,arc
205,18,arc,5.21689433907,space,1,correct,target,NaN,targetNaN,arc
206,18,trophy,4.75034577982,right,1,correct,path,1,path1,arc
207,18,astronaut,0.433615712682,right,1,correct,path,2,path2,arc
208,18,robot,0.766969773686,right,1,correct,path,3,path3,arc
209,18,watch,1.30036084261,right,1,correct,decision,1,decision1,arc
210,18,clover,1.06670938968,left,1,correct,arm1,1,arm11,arc
211,18,radio,0.550357371103,right,1,correct,arm1,2,arm12,arc
212,18,wing,0.45030943607,left,1,correct,arm1,3,arm13,arc
213,18,holly,3.45022793394,left,1,correct,decision,2,decision2,arc
214,18,match,0.600268594222,right,1,correct,arm2,1,arm21,arc
215,18,baby,0.600285800407,left,1,correct,arm2,2,arm22,arc
216,18,arc,1.80028990563,left,1,correct,arm2,3,arm23,arc
217,19,arc,14.8667732028,space,-1,miss,target,NaN,targetNaN,arc
218,19,trophy,1.90033150185,right,-1,miss,path,1,path1,arc
219,19,astronaut,0.466918638675,right,-1,miss,path,2,path2,arc
220,19,robot,5.21702866629,right,-1,miss,path,3,path3,arc
221,19,watch,4.18361978768,left,-1,miss,decision,1,decision1,arc
222,19,clover,15.4667849152,left,-1,miss,arm1,1,arm11,arc
223,19,radio,4.95054911217,right,-1,miss,arm1,2,arm12,arc
224,19,wing,1.68338645063,left,-1,miss,arm1,3,arm13,arc
225,19,stepladder,4.38354903203,right,-1,miss,decision,2,decision2,arc
226,19,calc,3.70018310798,right,-1,miss,arm2,1,arm21,arc
227,19,tongue,0.733652056661,right,-1,miss,arm2,2,arm22,arc
228,19,beaver,0.466912601609,left,-1,miss,arm2,3,arm23,arc
229,20,arc,2.1172403302,space,-1,miss,target,NaN,targetNaN,arc
230,20,trophy,12.017213223,right,-1,miss,path,1,path1,arc
231,20,astronaut,0.383676114725,right,-1,miss,path,2,path2,arc
232,20,robot,0.350500875153,right,-1,miss,path,3,path3,arc
233,20,watch,9.08355011861,left,-1,miss,decision,1,decision1,arc
234,20,clover,9.0667724784,left,-1,miss,arm1,1,arm11,arc
235,20,radio,1.53361897287,right,-1,miss,arm1,2,arm12,arc
236,20,wing,0.533691419056,left,-1,miss,arm1,3,arm13,arc
237,20,stepladder,3.86690903944,right,-1,miss,decision,2,decision2,arc
238,20,calc,0.983802533243,right,-1,miss,arm2,1,arm21,arc
239,20,tongue,0.900346896844,right,-1,miss,arm2,2,arm22,arc
240,20,beaver,4.41690991493,left,-1,miss,arm2,3,arm23,arc
241,21,beaver,6.00027620117,space,1,correct,target,NaN,targetNaN,beaver
242,21,trophy,1.93359911023,right,1,correct,path,1,path1,beaver
243,21,astronaut,0.650421305094,right,1,correct,path,2,path2,beaver
244,21,robot,0.183662953554,right,1,correct,path,3,path3,beaver
245,21,pigeon,4.36686406238,left,1,correct,decision,1,decision1,beaver
246,21,bus,2.21676272852,right,1,correct,arm1,1,arm11,beaver
247,21,deer,0.666775134625,left,1,correct,arm1,2,arm12,beaver
248,21,fist,1.4003142959,left,1,correct,arm1,3,arm13,beaver
249,21,stepladder,6.85018663947,right,1,correct,decision,2,decision2,beaver
250,21,calc,1.30029624468,right,1,correct,arm2,1,arm21,beaver
251,21,tongue,1.46698444383,right,1,correct,arm2,2,arm22,beaver
252,21,beaver,0.533623500494,left,1,correct,arm2,3,arm23,beaver
253,22,beaver,3.56691495585,space,1,correct,target,NaN,targetNaN,beaver
254,22,trophy,1.35028715874,right,1,correct,path,1,path1,beaver
255,22,astronaut,0.167049222859,right,1,correct,path,2,path2,beaver
256,22,robot,0.283699418185,right,1,correct,path,3,path3,beaver
257,22,pigeon,5.3836398914,left,1,correct,decision,1,decision1,beaver
258,22,bus,0.967087378027,right,1,correct,arm1,1,arm11,beaver
259,22,deer,0.533539281925,left,1,correct,arm1,2,arm12,beaver
260,22,fist,1.13361317711,left,1,correct,arm1,3,arm13,beaver
261,22,stepladder,3.11693454674,right,1,correct,decision,2,decision2,beaver
262,22,calc,0.783692173427,right,1,correct,arm2,1,arm21,beaver
263,22,tongue,0.500349251321,right,1,correct,arm2,2,arm22,beaver
264,22,beaver,0.28368643811,left,1,correct,arm2,3,arm23,beaver
265,23,beaver,5.50017085229,space,1,correct,target,NaN,targetNaN,beaver
266,23,trophy,2.80026726611,right,1,correct,path,1,path1,beaver
267,23,astronaut,0.983645868255,right,1,correct,path,2,path2,beaver
268,23,robot,0.766902157338,right,1,correct,path,3,path3,beaver
269,23,pigeon,4.65026765852,right,1,correct,decision,1,decision1,beaver
270,23,bus,1.01693943678,right,1,correct,arm1,1,arm11,beaver
271,23,deer,0.583602943923,left,1,correct,arm1,2,arm12,beaver
272,23,fist,0.933576168958,left,1,correct,arm1,3,arm13,beaver
273,23,stepladder,2.08360203821,left,1,correct,decision,2,decision2,beaver
274,23,calc,0.517141380813,right,1,correct,arm2,1,arm21,beaver
275,23,tongue,0.316925973864,right,1,correct,arm2,2,arm22,beaver
276,23,beaver,0.300265756901,left,1,correct,arm2,3,arm23,beaver
277,24,beaver,4.000242393,space,1,correct,target,NaN,targetNaN,beaver
278,24,trophy,0.950293135364,right,1,correct,path,1,path1,beaver
279,24,astronaut,0.416912329616,right,1,correct,path,2,path2,beaver
280,24,robot,0.233820493799,right,1,correct,path,3,path3,beaver
281,24,pigeon,1.01697565988,left,1,correct,decision,1,decision1,beaver
282,24,bus,0.766929626232,right,1,correct,arm1,1,arm11,beaver
283,24,deer,0.416925309692,left,1,correct,arm1,2,arm12,beaver
284,24,fist,0.683638804825,left,1,correct,arm1,3,arm13,beaver
285,24,stepladder,1.16695443913,left,1,correct,decision,2,decision2,beaver
286,24,calc,0.650258602807,right,1,correct,arm2,1,arm21,beaver
287,24,tongue,0.233609796269,right,1,correct,arm2,2,arm22,beaver
288,24,beaver,0.366918095155,left,1,correct,arm2,3,arm23,beaver
289,25,beaver,10.0503754828,space,1,correct,target,NaN,targetNaN,beaver
290,25,trophy,0.483576440718,right,1,correct,path,1,path1,beaver
291,25,astronaut,0.0835694377311,right,1,correct,path,2,path2,beaver
292,25,robot,0.300254889997,right,1,correct,path,3,path3,beaver
293,25,pigeon,5.0835863417,right,1,correct,decision,1,decision1,beaver
294,25,bus,0.733618550235,right,1,correct,arm1,1,arm11,beaver
295,25,deer,0.58356913575,left,1,correct,arm1,2,arm12,beaver
296,25,fist,0.516914986307,left,1,correct,arm1,3,arm13,beaver
297,25,stepladder,1.91690961318,left,1,correct,decision,2,decision2,beaver
298,25,calc,1.05041562999,right,1,correct,arm2,1,arm21,beaver
299,25,tongue,0.183556698961,right,1,correct,arm2,2,arm22,beaver
300,25,beaver,0.316884920932,left,1,correct,arm2,3,arm23,beaver
301,26,beaver,1.40027595963,space,1,correct,target,NaN,targetNaN,beaver
302,26,trophy,0.467650043778,right,1,correct,path,1,path1,beaver
303,26,astronaut,0.216916072881,right,1,correct,path,2,path2,beaver
304,26,robot,1.76695317146,right,1,correct,path,3,path3,beaver
305,26,pigeon,1.35024067247,left,1,correct,decision,1,decision1,beaver
306,26,bus,1.1334305522,right,1,correct,arm1,1,arm11,beaver
307,26,deer,0.400295278756,left,1,correct,arm1,2,arm12,beaver
308,26,fist,0.583575776778,left,1,correct,arm1,3,arm13,beaver
309,26,stepladder,1.16728618252,left,1,correct,decision,2,decision2,beaver
310,26,calc,0.583720970899,right,1,correct,arm2,1,arm21,beaver
311,26,tongue,0.166925460799,right,1,correct,arm2,2,arm22,beaver
312,26,beaver,0.350330324611,left,1,correct,arm2,3,arm23,beaver
313,27,arc,13.8167982874,space,-1,miss,target,NaN,targetNaN,arc
314,27,trophy,1.1003739431,right,-1,miss,path,1,path1,arc
315,27,astronaut,0.317258320982,right,-1,miss,path,2,path2,arc
316,27,robot,1.08357456932,right,-1,miss,path,3,path3,arc
317,27,watch,6.56690801331,left,-1,miss,decision,1,decision1,arc
318,27,clover,1.90026569646,left,-1,miss,arm1,1,arm11,arc
319,27,radio,0.483590929769,right,-1,miss,arm1,2,arm12,arc
320,27,wing,0.583720668918,left,-1,miss,arm1,3,arm13,arc
321,27,stepladder,0.883629326476,left,-1,miss,decision,2,decision2,arc
322,27,calc,0.533599351766,right,-1,miss,arm2,1,arm21,arc
323,27,tongue,0.216920902487,right,-1,miss,arm2,2,arm22,arc
324,27,beaver,0.350319457706,left,-1,miss,arm2,3,arm23,arc
325,28,arc,14.2667083633,space,-1,miss,target,NaN,targetNaN,arc
326,28,trophy,1.20025887457,right,-1,miss,path,1,path1,arc
327,28,astronaut,0.266947737895,right,-1,miss,path,2,path2,arc
328,28,robot,0.16694387421,right,-1,miss,path,3,path3,arc
329,28,pigeon,22.0335592045,left,-1,miss,decision,1,decision1,arc
330,28,bus,3.66687082429,right,-1,miss,arm1,1,arm11,arc
331,28,deer,0.567677754443,left,-1,miss,arm1,2,arm12,arc
332,28,fist,0.53361021867,left,-1,miss,arm1,3,arm13,arc
333,28,stepladder,19.100026805,right,-1,miss,decision,2,decision2,arc
334,28,calc,0.866900285706,right,-1,miss,arm2,1,arm21,arc
335,28,tongue,0.250284502516,right,-1,miss,arm2,2,arm22,arc
336,28,beaver,0.216907016933,left,-1,miss,arm2,3,arm23,arc
337,29,beaver,2.46699259407,space,1,correct,target,NaN,targetNaN,beaver
338,29,trophy,0.56694333069,right,1,correct,path,1,path1,beaver
339,29,astronaut,0.416930441279,right,1,correct,path,2,path2,beaver
340,29,robot,0.450274722185,right,1,correct,path,3,path3,beaver
341,29,pigeon,1.38358736807,left,1,correct,decision,1,decision1,beaver
342,29,bus,0.733611305477,right,1,correct,arm1,1,arm11,beaver
343,29,deer,0.700243177824,left,1,correct,arm1,2,arm12,beaver
344,29,fist,0.600039483048,left,1,correct,arm1,3,arm13,beaver
345,29,stepladder,1.86691900087,right,1,correct,decision,2,decision2,beaver
346,29,calc,0.566899259342,right,1,correct,arm2,1,arm21,beaver
347,29,tongue,0.150353084784,right,1,correct,arm2,2,arm22,beaver
348,29,beaver,0.216914261691,left,1,correct,arm2,3,arm23,beaver
349,30,beaver,1.083615924,space,1,correct,target,NaN,targetNaN,beaver
350,30,trophy,5.41687218263,right,1,correct,path,1,path1,beaver
351,30,astronaut,0.216928448994,right,1,correct,path,2,path2,beaver
352,30,robot,0.550252022222,right,1,correct,path,3,path3,beaver
353,30,pigeon,2.11747759138,left,1,correct,decision,1,decision1,beaver
354,30,bus,3.76695105829,right,1,correct,arm1,1,arm11,beaver
355,30,deer,0.550237834919,left,1,correct,arm1,2,arm12,beaver
356,30,fist,0.666960778413,left,1,correct,arm1,3,arm13,beaver
357,30,stepladder,0.833615471143,left,1,correct,decision,2,decision2,beaver
358,30,calc,0.616998842685,right,1,correct,arm2,1,arm21,beaver
359,30,tongue,0.15025286749,right,1,correct,arm2,2,arm22,beaver
360,30,beaver,0.184551929124,left,1,correct,arm2,3,arm23,beaver
361,31,beaver,5.96688000089,space,1,correct,target,NaN,targetNaN,beaver
362,31,trophy,7.43348440388,right,1,correct,path,1,path1,beaver
363,31,astronaut,0.450260534883,right,1,correct,path,2,path2,beaver
364,31,robot,0.400281393202,right,1,correct,path,3,path3,beaver
365,31,pigeon,3.51705142646,left,1,correct,decision,1,decision1,beaver
366,31,bus,3.48355349945,right,1,correct,arm1,1,arm11,beaver
367,31,deer,2.20023653703,left,1,correct,arm1,2,arm12,beaver
368,31,fist,0.466933127958,left,1,correct,arm1,3,arm13,beaver
369,31,stepladder,0.550249003805,left,1,correct,decision,2,decision2,beaver
370,31,calc,0.500355892116,right,1,correct,arm2,1,arm21,beaver
371,31,tongue,0.133565483149,right,1,correct,arm2,2,arm22,beaver
372,31,beaver,0.216994254384,left,1,correct,arm2,3,arm23,beaver
373,32,beaver,1.48365522595,space,1,correct,target,NaN,targetNaN,beaver
374,32,trophy,0.467909038998,right,1,correct,path,1,path1,beaver
375,32,astronaut,0.283582296921,right,1,correct,path,2,path2,beaver
376,32,robot,3.2502060188,right,1,correct,path,3,path3,beaver
377,32,pigeon,2.73362911516,left,1,correct,decision,1,decision1,beaver
378,32,bus,2.05025413539,right,1,correct,arm1,1,arm11,beaver
379,32,deer,0.633611063939,left,1,correct,arm1,2,arm12,beaver
380,32,fist,0.466890565818,left,1,correct,arm1,3,arm13,beaver
381,32,stepladder,9.33349382179,left,1,correct,decision,2,decision2,beaver
382,32,calc,2.75024435506,right,1,correct,arm2,1,arm21,beaver
383,32,tongue,0.28357897629,right,1,correct,arm2,2,arm22,beaver
384,32,beaver,0.300426346017,left,1,correct,arm2,3,arm23,beaver
385,33,beaver,1.43367638625,space,1,correct,target,NaN,targetNaN,beaver
386,33,trophy,0.700758149847,right,1,correct,path,1,path1,beaver
387,33,astronaut,0.416948552942,right,1,correct,path,2,path2,beaver
388,33,robot,2.08359871781,right,1,correct,path,3,path3,beaver
389,33,pigeon,6.35036201985,left,1,correct,decision,1,decision1,beaver
390,33,bus,1.85025093565,right,1,correct,arm1,1,arm11,beaver
391,33,deer,1.41691323556,left,1,correct,arm1,2,arm12,beaver
392,33,fist,0.48359817476,left,1,correct,arm1,3,arm13,beaver
393,33,stepladder,3.76688917726,right,1,correct,decision,2,decision2,beaver
394,33,calc,0.71698218002,right,1,correct,arm2,1,arm21,beaver
395,33,tongue,0.266877102898,right,1,correct,arm2,2,arm22,beaver
396,33,beaver,0.633622836554,left,1,correct,arm2,3,arm23,beaver
397,34,arc,6.70024498901,space,-1,miss,target,NaN,targetNaN,arc
398,34,trophy,3.68369827117,right,-1,miss,path,1,path1,arc
399,34,astronaut,0.200416747015,right,-1,miss,path,2,path2,arc
400,34,robot,0.500253561651,right,-1,miss,path,3,path3,arc
401,34,watch,2.80034756078,right,-1,miss,decision,1,decision1,arc
402,34,clover,3.66686237208,left,-1,miss,arm1,1,arm11,arc
403,34,radio,0.633576652035,right,-1,miss,arm1,2,arm12,arc
404,34,wing,0.666710235178,left,-1,miss,arm1,3,arm13,arc
405,34,stepladder,2.90029497701,right,-1,miss,decision,2,decision2,arc
406,34,calc,3.30017519905,right,-1,miss,arm2,1,arm21,arc
407,34,tongue,1.58362105559,right,-1,miss,arm2,2,arm22,arc
408,34,beaver,0.783611577237,left,-1,miss,arm2,3,arm23,arc
409,35,arc,18.3167019943,space,1,correct,target,NaN,targetNaN,arc
410,35,trophy,0.483627454843,right,1,correct,path,1,path1,arc
411,35,astronaut,0.283651422476,right,1,correct,path,2,path2,arc
412,35,robot,0.500351364259,right,1,correct,path,3,path3,arc
413,35,watch,18.1334236094,right,1,correct,decision,1,decision1,arc
414,35,clover,3.01689083758,left,1,correct,arm1,1,arm11,arc
415,35,radio,0.41710340674,right,1,correct,arm1,2,arm12,arc
416,35,wing,0.416910820408,left,1,correct,arm1,3,arm13,arc
417,35,holly,2.66692847945,left,1,correct,decision,2,decision2,arc
418,35,match,1.46696452121,right,1,correct,arm2,1,arm21,arc
419,35,baby,1.05025172047,left,1,correct,arm2,2,arm22,arc
420,35,arc,1.85031130747,left,1,correct,arm2,3,arm23,arc
421,36,beaver,6.31689216546,space,1,correct,target,NaN,targetNaN,beaver
422,36,trophy,6.55017233151,right,1,correct,path,1,path1,beaver
423,36,astronaut,0.400244566379,right,1,correct,path,2,path2,beaver
424,36,robot,0.2835569405,right,1,correct,path,3,path3,beaver
425,36,pigeon,4.10025078454,right,1,correct,decision,1,decision1,beaver
426,36,bus,0.683595035225,right,1,correct,arm1,1,arm11,beaver
427,36,deer,0.55025987071,left,1,correct,arm1,2,arm12,beaver
428,36,fist,0.8502708585,left,1,correct,arm1,3,arm13,beaver
429,36,stepladder,1.61691854801,right,1,correct,decision,2,decision2,beaver
430,36,calc,0.583576984005,right,1,correct,arm2,1,arm21,beaver
431,36,tongue,0.166956250323,right,1,correct,arm2,2,arm22,beaver
432,36,beaver,0.366935603088,left,1,correct,arm2,3,arm23,beaver
433,37,arc,7.50021492387,space,-1,miss,target,NaN,targetNaN,arc
434,37,trophy,0.666957457783,right,-1,miss,path,1,path1,arc
435,37,astronaut,0.350403374527,right,-1,miss,path,2,path2,arc
436,37,robot,1.70023442409,right,-1,miss,path,3,path3,arc
437,37,pigeon,16.8668127463,left,-1,miss,decision,1,decision1,arc
438,37,bus,1.03370138048,right,-1,miss,arm1,1,arm11,arc
439,37,deer,0.70027306187,left,-1,miss,arm1,2,arm12,arc
440,37,fist,0.567008834332,left,-1,miss,arm1,3,arm13,arc
441,37,stepladder,2.46667715115,right,-1,miss,decision,2,decision2,arc
442,37,calc,0.300279038725,right,-1,miss,arm2,1,arm21,arc
443,37,tongue,0.183568773558,right,-1,miss,arm2,2,arm22,arc
444,37,beaver,0.250376569573,left,-1,miss,arm2,3,arm23,arc
445,38,beaver,2.96696120081,space,1,correct,target,NaN,targetNaN,beaver
446,38,trophy,0.483561045956,right,1,correct,path,1,path1,beaver
447,38,astronaut,0.216878944077,right,1,correct,path,2,path2,beaver
448,38,robot,0.733730238164,right,1,correct,path,3,path3,beaver
449,38,pigeon,1.46699772589,left,1,correct,decision,1,decision1,beaver
450,38,bus,4.93358794157,right,1,correct,arm1,1,arm11,beaver
451,38,deer,0.566923408071,left,1,correct,arm1,2,arm12,beaver
452,38,fist,0.467067153426,left,1,correct,arm1,3,arm13,beaver
453,38,stepladder,0.767052483046,left,1,correct,decision,2,decision2,beaver
454,38,calc,0.483923276886,right,1,correct,arm2,1,arm21,beaver
455,38,tongue,0.200261893217,right,1,correct,arm2,2,arm22,beaver
456,38,beaver,0.233715446899,left,1,correct,arm2,3,arm23,beaver
457,39,arc,1.41690961295,space,1,correct,target,NaN,targetNaN,arc
458,39,trophy,0.500272578793,right,1,correct,path,1,path1,arc
459,39,astronaut,0.183550360147,right,1,correct,path,2,path2,arc
460,39,robot,0.266970377415,right,1,correct,path,3,path3,arc
461,39,watch,6.21684060805,right,1,correct,decision,1,decision1,arc
462,39,clover,7.60018528113,left,1,correct,arm1,1,arm11,arc
463,39,radio,0.416912027868,right,1,correct,arm1,2,arm12,arc
464,39,wing,0.550261077937,left,1,correct,arm1,3,arm13,arc
465,39,holly,8.46690173447,right,1,correct,decision,2,decision2,arc
466,39,match,1.96688000066,right,1,correct,arm2,1,arm21,arc
467,39,baby,0.816932916641,left,1,correct,arm2,2,arm22,arc
468,39,arc,0.983565271832,left,1,correct,arm2,3,arm23,arc
469,40,beaver,1.73363062437,space,1,correct,target,NaN,targetNaN,beaver
470,40,trophy,1.91691625398,right,1,correct,path,1,path1,beaver
471,40,astronaut,0.166927875485,right,1,correct,path,2,path2,beaver
472,40,robot,1.11692247214,right,1,correct,path,3,path3,beaver
473,40,pigeon,1.5003501568,right,1,correct,decision,1,decision1,beaver
474,40,bus,3.900217399,right,1,correct,arm1,1,arm11,beaver
475,40,deer,0.466905658832,left,1,correct,arm1,2,arm12,beaver
476,40,fist,0.683565754909,left,1,correct,arm1,3,arm13,beaver
477,40,stepladder,7.33357170154,left,1,correct,decision,2,decision2,beaver
478,40,calc,0.766967660515,right,1,correct,arm2,1,arm21,beaver
479,40,tongue,0.350230409065,right,1,correct,arm2,2,arm22,beaver
480,40,beaver,0.400231284555,left,1,correct,arm2,3,arm23,beaver
481,41,beaver,1.6343639011,space,1,correct,target,NaN,targetNaN,beaver
482,41,trophy,0.683856445365,right,1,correct,path,1,path1,beaver
483,41,astronaut,2.16696198564,right,1,correct,path,2,path2,beaver
484,41,robot,0.266879216069,right,1,correct,path,3,path3,beaver
485,41,pigeon,0.750388643704,left,1,correct,decision,1,decision1,beaver
486,41,bus,0.534137868788,right,1,correct,arm1,1,arm11,beaver
487,41,deer,0.450422934955,left,1,correct,arm1,2,arm12,beaver
488,41,fist,0.567002495052,left,1,correct,arm1,3,arm13,beaver
489,41,stepladder,0.416870371206,right,1,correct,decision,2,decision2,beaver
490,41,calc,0.950333584566,right,1,correct,arm2,1,arm21,beaver
491,41,tongue,0.700341583928,right,1,correct,arm2,2,arm22,beaver
492,41,beaver,0.40031037177,left,1,correct,arm2,3,arm23,beaver
493,42,arc,1.43360273284,space,1,correct,target,NaN,targetNaN,arc
494,42,trophy,0.483575233258,right,1,correct,path,1,path1,arc
495,42,astronaut,0.450314567657,right,1,correct,path,2,path2,arc
496,42,robot,0.417362703942,right,1,correct,path,3,path3,arc
497,42,watch,1.48357825191,right,1,correct,decision,1,decision1,arc
498,42,clover,2.76693445607,left,1,correct,arm1,1,arm11,arc
499,42,radio,0.433554435149,right,1,correct,arm1,2,arm12,arc
500,42,wing,0.416923196753,left,1,correct,arm1,3,arm13,arc
501,42,holly,1.16697285254,left,1,correct,decision,2,decision2,arc
502,42,match,0.583669956774,right,1,correct,arm2,1,arm21,arc
503,42,baby,0.550316922134,left,1,correct,arm2,2,arm22,arc
504,42,arc,0.850253048586,left,1,correct,arm2,3,arm23,arc
505,43,arc,1.05028341571,space,1,correct,target,NaN,targetNaN,arc
506,43,trophy,0.366962770466,right,1,correct,path,1,path1,arc
507,43,astronaut,0.150239283685,right,1,correct,path,2,path2,arc
508,43,robot,0.566947255051,right,1,correct,path,3,path3,arc
509,43,watch,1.36761750327,right,1,correct,decision,1,decision1,arc
510,43,clover,0.850469179684,left,1,correct,arm1,1,arm11,arc
511,43,radio,0.433587035863,right,1,correct,arm1,2,arm12,arc
512,43,wing,0.516946077812,left,1,correct,arm1,3,arm13,arc
513,43,holly,2.11697499594,left,1,correct,decision,2,decision2,arc
514,43,match,0.550244777696,right,1,correct,arm2,1,arm21,arc
515,43,baby,1.30022440222,left,1,correct,arm2,2,arm22,arc
516,43,arc,2.06691133371,left,1,correct,arm2,3,arm23,arc
517,44,beaver,1.10031598643,space,1,correct,target,NaN,targetNaN,beaver
518,44,trophy,5.05023572175,right,1,correct,path,1,path1,beaver
519,44,astronaut,0.233560291352,right,1,correct,path,2,path2,beaver
520,44,robot,0.350260896841,right,1,correct,path,3,path3,beaver
521,44,pigeon,2.08364460035,left,1,correct,decision,1,decision1,beaver
522,44,bus,2.00024209125,right,1,correct,arm1,1,arm11,beaver
523,44,deer,0.566895334981,left,1,correct,arm1,2,arm12,beaver
524,44,fist,0.60027885763,left,1,correct,arm1,3,arm13,beaver
525,44,stepladder,1.1008554087,right,1,correct,decision,2,decision2,beaver
526,44,calc,10.4503788636,right,1,correct,arm2,1,arm21,beaver
527,44,tongue,1.38363143965,right,1,correct,arm2,2,arm22,beaver
528,44,beaver,1.21690580971,left,1,correct,arm2,3,arm23,beaver
529,45,arc,3.0669333695,space,1,correct,target,NaN,targetNaN,arc
530,45,trophy,4.3501975066,right,1,correct,path,1,path1,arc
531,45,astronaut,0.166934818495,right,1,correct,path,2,path2,arc
532,45,robot,0.516967207892,right,1,correct,path,3,path3,arc
533,45,watch,8.1668865208,right,1,correct,decision,1,decision1,arc
534,45,clover,2.70022416068,left,1,correct,arm1,1,arm11,arc
535,45,radio,0.416899953736,right,1,correct,arm1,2,arm12,arc
536,45,wing,0.48361236183,left,1,correct,arm1,3,arm13,arc
537,45,holly,1.03364281962,right,1,correct,decision,2,decision2,arc
538,45,match,1.56698498735,right,1,correct,arm2,1,arm21,arc
539,45,baby,0.666914895643,left,1,correct,arm2,2,arm22,arc
540,45,arc,2.70019910648,left,1,correct,arm2,3,arm23,arc
541,46,arc,2.35022648494,space,1,correct,target,NaN,targetNaN,arc
542,46,trophy,1.91690840572,right,1,correct,path,1,path1,arc
543,46,astronaut,0.150234454079,right,1,correct,path,2,path2,arc
544,46,robot,0.466924072243,right,1,correct,path,3,path3,arc
545,46,watch,1.91690478334,left,1,correct,decision,1,decision1,arc
546,46,clover,4.7835240378,left,1,correct,arm1,1,arm11,arc
547,46,radio,0.516933399718,right,1,correct,arm1,2,arm12,arc
548,46,wing,0.500376116717,left,1,correct,arm1,3,arm13,arc
549,46,holly,2.43365706736,left,1,correct,decision,2,decision2,arc
550,46,match,0.566957819974,right,1,correct,arm2,1,arm21,arc
551,46,baby,0.466867624549,left,1,correct,arm2,2,arm22,arc
552,46,arc,1.91692138556,left,1,correct,arm2,3,arm23,arc
553,47,arc,11.2334573574,space,1,correct,target,NaN,targetNaN,arc
554,47,trophy,2.43355715205,right,1,correct,path,1,path1,arc
555,47,astronaut,0.200226273621,right,1,correct,path,2,path2,arc
556,47,robot,0.600391753018,right,1,correct,path,3,path3,arc
557,47,watch,1.16694779834,right,1,correct,decision,1,decision1,arc
558,47,clover,0.7502727299,left,1,correct,arm1,1,arm11,arc
559,47,radio,0.350055632647,right,1,correct,arm1,2,arm12,arc
560,47,wing,0.43356952793,left,1,correct,arm1,3,arm13,arc
561,47,holly,0.966933731688,right,1,correct,decision,2,decision2,arc
562,47,match,1.06697291275,right,1,correct,arm2,1,arm21,arc
563,47,baby,0.56694453815,left,1,correct,arm2,2,arm22,arc
564,47,arc,0.73358504381,left,1,correct,arm2,3,arm23,arc
565,48,arc,0.750378682511,space,1,correct,target,NaN,targetNaN,arc
566,48,trophy,0.566907711327,right,1,correct,path,1,path1,arc
567,48,astronaut,0.433607562445,right,1,correct,path,2,path2,arc
568,48,robot,0.317166555673,right,1,correct,path,3,path3,arc
569,48,watch,0.833592228126,right,1,correct,decision,1,decision1,arc
570,48,clover,0.900267809397,left,1,correct,arm1,1,arm11,arc
571,48,radio,0.35033273953,right,1,correct,arm1,2,arm12,arc
572,48,wing,0.350279612234,left,1,correct,arm1,3,arm13,arc
573,48,holly,0.50032540434,right,1,correct,decision,2,decision2,arc
574,48,match,0.866955827689,right,1,correct,arm2,1,arm21,arc
575,48,baby,0.483610249124,left,1,correct,arm2,2,arm22,arc
576,48,arc,0.266996035352,left,1,correct,arm2,3,arm23,arc
577,49,beaver,1.30024915468,space,1,correct,target,NaN,targetNaN,beaver
578,49,trophy,0.550244777696,right,1,correct,path,1,path1,beaver
579,49,astronaut,0.333617584081,right,1,correct,path,2,path2,beaver
580,49,robot,0.933611184591,right,1,correct,path,3,path3,beaver
581,49,pigeon,1.00023514824,left,1,correct,decision,1,decision1,beaver
582,49,bus,1.25007863436,right,1,correct,arm1,1,arm11,beaver
583,49,deer,0.733719672775,left,1,correct,arm1,2,arm12,beaver
584,49,fist,0.533573995577,left,1,correct,arm1,3,arm13,beaver
585,49,stepladder,0.650285166455,left,1,correct,decision,2,decision2,beaver
586,49,calc,0.583675691858,right,1,correct,arm2,1,arm21,beaver
587,49,tongue,11.733429888,right,1,correct,arm2,2,arm22,beaver
588,49,beaver,3.33357471996,left,1,correct,arm2,3,arm23,beaver
589,50,beaver,1.18381086458,space,1,correct,target,NaN,targetNaN,beaver
590,50,trophy,0.734446550021,right,1,correct,path,1,path1,beaver
591,50,astronaut,3.36705061141,right,1,correct,path,2,path2,beaver
592,50,robot,0.450252082665,right,1,correct,path,3,path3,beaver
593,50,pigeon,1.48357010167,left,1,correct,decision,1,decision1,beaver
594,50,bus,0.733612512937,right,1,correct,arm1,1,arm11,beaver
595,50,deer,0.533608407713,left,1,correct,arm1,2,arm12,beaver
596,50,fist,0.967483417364,left,1,correct,arm1,3,arm13,beaver
597,50,stepladder,0.667018735316,left,1,correct,decision,2,decision2,beaver
598,50,calc,0.583684747806,right,1,correct,arm2,1,arm21,beaver
599,50,tongue,1.48362232326,right,1,correct,arm2,2,arm22,beaver
600,50,beaver,0.416918668896,left,1,correct,arm2,3,arm23,beaver
