pic_index,trial_num,pic_name,rt,resp,feedback_code,feedback,segment,segment_index,pic_type,trial_target
1,1,lion,1.450257516,space,1,correct,target,NaN,targetNaN,lion
2,1,coffeepot,1.11690586992,left,1,correct,path,1,path1,lion
3,1,mosquito,0.150220266543,left,1,correct,path,2,path2,lion
4,1,canoe,0.1143216528,right,1,correct,path,3,path3,lion
5,1,goose,2.50022639451,left,1,correct,decision,1,decision1,lion
6,1,sailor,0.800254588015,left,1,correct,arm1,1,arm11,lion
7,1,cooker,0.200262798462,right,1,correct,arm1,2,arm12,lion
8,1,tooth,0.216916676611,left,1,correct,arm1,3,arm13,lion
9,1,crutches,0.666954741115,right,1,correct,decision,2,decision2,lion
10,1,stapler,1.01693792758,right,1,correct,arm2,1,arm21,lion
11,1,rose,0.26696494408,right,1,correct,arm2,2,arm22,lion
12,1,lion,0.283578070812,left,1,correct,arm2,3,arm23,lion
13,2,lion,0.833642638288,space,1,correct,target,NaN,targetNaN,lion
14,2,coffeepot,0.817383894464,left,1,correct,path,1,path1,lion
15,2,mosquito,0.11691794428,left,1,correct,path,2,path2,lion
16,2,canoe,0.233591080876,right,1,correct,path,3,path3,lion
17,2,goose,0.733695222298,left,1,correct,decision,1,decision1,lion
18,2,sailor,0.567284431774,left,1,correct,arm1,1,arm11,lion
19,2,cooker,0.150344330817,right,1,correct,arm1,2,arm12,lion
20,2,tooth,0.217268644366,left,1,correct,arm1,3,arm13,lion
21,2,crutches,0.600329268025,left,1,correct,decision,2,decision2,lion
22,2,stapler,0.467066549696,right,1,correct,arm2,1,arm21,lion
23,2,rose,0.083583323285,right,1,correct,arm2,2,arm22,lion
24,2,lion,0.250238016015,left,1,correct,arm2,3,arm23,lion
25,3,bolt,0.567106334958,space,1,correct,target,NaN,targetNaN,bolt
26,3,coffeepot,0.533752998337,left,1,correct,path,1,path1,bolt
27,3,mosquito,0.066921596881,left,1,correct,path,2,path2,bolt
28,3,canoe,0.150332558434,right,1,correct,path,3,path3,bolt
29,3,domino,0.666914291913,left,1,correct,decision,1,decision1,bolt
30,3,ambulance,0.466961200815,right,1,correct,arm1,1,arm11,bolt
31,3,trunk,0.366934999358,left,1,correct,arm1,2,arm12,bolt
32,3,peach,0.1502773182,left,1,correct,arm1,3,arm13,bolt
33,3,garlic,0.716952597722,left,1,correct,decision,2,decision2,bolt
34,3,mug,0.88470243616,right,1,correct,arm2,1,arm21,bolt
35,3,branch,0.416924102232,right,1,correct,arm2,2,arm22,bolt
36,3,bolt,0.233577799285,right,1,correct,arm2,3,arm23,bolt
37,4,bolt,0.483578251908,space,1,correct,target,NaN,targetNaN,bolt
38,4,coffeepot,0.450490249554,left,1,correct,path,1,path1,bolt
39,4,mosquito,0.050243268488,left,1,correct,path,2,path2,bolt
40,4,canoe,0.283627575729,right,1,correct,path,3,path3,bolt
41,4,domino,1.36702555721,left,1,correct,decision,1,decision1,bolt
42,4,ambulance,0.48400598648,right,1,correct,arm1,1,arm11,bolt
43,4,trunk,0.183752002195,left,1,correct,arm1,2,arm12,bolt
44,4,peach,0.183626730461,left,1,correct,arm1,3,arm13,bolt
45,4,garlic,0.466945806053,right,1,correct,decision,2,decision2,bolt
46,4,mug,0.533651875332,right,1,correct,arm2,1,arm21,bolt
47,4,branch,0.150235963287,right,1,correct,arm2,2,arm22,bolt
48,4,bolt,0.333673126064,right,1,correct,arm2,3,arm23,bolt
49,5,bolt,3.06689895759,space,1,correct,target,NaN,targetNaN,bolt
50,5,coffeepot,0.600292743184,left,1,correct,path,1,path1,bolt
51,5,mosquito,0.166684878757,left,1,correct,path,2,path2,bolt
52,5,canoe,0.114336443832,right,1,correct,path,3,path3,bolt
53,5,domino,4.5669448399,left,1,correct,decision,1,decision1,bolt
54,5,ambulance,0.73358111945,right,1,correct,arm1,1,arm11,bolt
55,5,trunk,0.183677442838,left,1,correct,arm1,2,arm12,bolt
56,5,peach,0.216754880035,left,1,correct,arm1,3,arm13,bolt
57,5,garlic,0.400413003983,right,1,correct,decision,2,decision2,bolt
58,5,mug,0.950256006792,right,1,correct,arm2,1,arm21,bolt
59,5,branch,0.150261319475,right,1,correct,arm2,2,arm22,bolt
60,5,bolt,0.233555159532,right,1,correct,arm2,3,arm23,bolt
61,6,bolt,0.466977501288,space,-1,miss,target,NaN,targetNaN,bolt
62,6,coffeepot,0.433650124585,left,-1,miss,path,1,path1,bolt
63,6,mosquito,0.0669496699702,left,-1,miss,path,2,path2,bolt
64,6,canoe,0.383599744411,right,-1,miss,path,3,path3,bolt
65,6,domino,0.800232854206,left,-1,miss,decision,1,decision1,bolt
66,6,ambulance,0.483517879853,right,-1,miss,arm1,1,arm11,bolt
67,6,trunk,0.201045519905,left,-1,miss,arm1,2,arm12,bolt
68,6,peach,0.167133139679,left,-1,miss,arm1,3,arm13,bolt
69,6,crutches,0.516919212183,right,-1,miss,decision,2,decision2,bolt
70,6,stapler,0.766970377415,right,-1,miss,arm2,1,arm21,bolt
71,6,rose,0.200238347985,right,-1,miss,arm2,2,arm22,bolt
72,6,lion,1.48370684404,left,-1,miss,arm2,3,arm23,bolt
73,7,bolt,5.75024526054,space,1,correct,target,NaN,targetNaN,bolt
74,7,coffeepot,1.00030668895,left,1,correct,path,1,path1,bolt
75,7,mosquito,0.167288295692,left,1,correct,path,2,path2,bolt
76,7,canoe,0.350314627867,right,1,correct,path,3,path3,bolt
77,7,domino,0.800325223245,left,1,correct,decision,1,decision1,bolt
78,7,ambulance,0.567898111651,right,1,correct,arm1,1,arm11,bolt
79,7,trunk,0.183611335466,left,1,correct,arm1,2,arm12,bolt
80,7,peach,0.267076028278,left,1,correct,arm1,3,arm13,bolt
81,7,garlic,1.06694182148,right,1,correct,decision,2,decision2,bolt
82,7,mug,0.766997846542,right,1,correct,arm2,1,arm21,bolt
83,7,branch,0.266929626232,right,1,correct,arm2,2,arm22,bolt
84,7,bolt,0.317355821375,right,1,correct,arm2,3,arm23,bolt
85,8,bolt,0.683592318557,space,1,correct,target,NaN,targetNaN,bolt
86,8,coffeepot,3.98350610747,left,1,correct,path,1,path1,bolt
87,8,mosquito,0.133596574655,left,1,correct,path,2,path2,bolt
88,8,canoe,1.33359947242,right,1,correct,path,3,path3,bolt
89,8,domino,0.816942274338,right,1,correct,decision,1,decision1,bolt
90,8,ambulance,0.533586673904,right,1,correct,arm1,1,arm11,bolt
91,8,trunk,0.20025193179,left,1,correct,arm1,2,arm12,bolt
92,8,peach,0.233701561345,left,1,correct,arm1,3,arm13,bolt
93,8,garlic,0.583635846619,right,1,correct,decision,2,decision2,bolt
94,8,mug,0.383585858624,right,1,correct,arm2,1,arm21,bolt
95,8,branch,0.1502948259,right,1,correct,arm2,2,arm22,bolt
96,8,bolt,0.200253139017,right,1,correct,arm2,3,arm23,bolt
97,9,lion,0.500257486012,space,1,correct,target,NaN,targetNaN,lion
98,9,coffeepot,0.666897991439,left,1,correct,path,1,path1,lion
99,9,mosquito,0.316897901008,left,1,correct,path,2,path2,lion
100,9,canoe,0.114215096459,right,1,correct,path,3,path3,lion
101,9,goose,1.15032048407,right,1,correct,decision,1,decision1,lion
102,9,sailor,1.11690375698,left,1,correct,arm1,1,arm11,lion
103,9,cooker,0.133558540605,right,1,correct,arm1,2,arm12,lion
104,9,tooth,0.683543115389,left,1,correct,arm1,3,arm13,lion
105,9,crutches,0.38362449687,left,1,correct,decision,2,decision2,lion
106,9,stapler,0.450310945278,right,1,correct,arm2,1,arm21,lion
107,9,rose,0.250255825697,right,1,correct,arm2,2,arm22,lion
108,9,lion,0.266983659007,left,1,correct,arm2,3,arm23,lion
109,10,lion,0.683617674746,space,1,correct,target,NaN,targetNaN,lion
110,10,coffeepot,0.51709700725,left,1,correct,path,1,path1,lion
111,10,mosquito,0.150242302567,left,1,correct,path,2,path2,lion
112,10,canoe,0.550238136901,right,1,correct,path,3,path3,lion
113,10,goose,1.2836067474,right,1,correct,decision,1,decision1,lion
114,10,sailor,0.683780980529,left,1,correct,arm1,1,arm11,lion
115,10,cooker,0.150326219155,right,1,correct,arm1,2,arm12,lion
116,10,tooth,0.316945594503,left,1,correct,arm1,3,arm13,lion
117,10,crutches,1.75029114331,right,1,correct,decision,2,decision2,lion
118,10,stapler,0.566964461002,right,1,correct,arm2,1,arm21,lion
119,10,rose,0.150255584158,right,1,correct,arm2,2,arm22,lion
120,10,lion,0.301027348032,left,1,correct,arm2,3,arm23,lion
121,11,lion,6.68349632737,space,1,correct,target,NaN,targetNaN,lion
122,11,coffeepot,0.650275808759,left,1,correct,path,1,path1,lion
123,11,mosquito,0.18356213253,left,1,correct,path,2,path2,lion
124,11,canoe,0.216921808198,right,1,correct,path,3,path3,lion
125,11,goose,1.55024507968,left,1,correct,decision,1,decision1,lion
126,11,sailor,0.566929445136,left,1,correct,arm1,1,arm11,lion
127,11,cooker,0.183780678781,right,1,correct,arm1,2,arm12,lion
128,11,tooth,0.200235933298,left,1,correct,arm1,3,arm13,lion
129,11,crutches,0.716923921136,right,1,correct,decision,2,decision2,lion
130,11,stapler,0.383614837192,right,1,correct,arm2,1,arm21,lion
131,11,rose,0.550339259673,right,1,correct,arm2,2,arm22,lion
132,11,lion,0.200190654257,left,1,correct,arm2,3,arm23,lion
133,12,lion,0.833612452494,space,1,correct,target,NaN,targetNaN,lion
134,12,coffeepot,0.600248671602,left,1,correct,path,1,path1,lion
135,12,mosquito,0.133562766481,left,1,correct,path,2,path2,lion
136,12,canoe,0.200238046004,right,1,correct,path,3,path3,lion
137,12,goose,0.616932131816,left,1,correct,decision,1,decision1,lion
138,12,sailor,0.666915197391,left,1,correct,arm1,1,arm11,lion
139,12,cooker,0.250242242124,right,1,correct,arm1,2,arm12,lion
140,12,tooth,0.200193371158,left,1,correct,arm1,3,arm13,lion
141,12,crutches,0.666915801121,left,1,correct,decision,2,decision2,lion
142,12,stapler,0.368041313719,right,1,correct,arm2,1,arm21,lion
143,12,rose,0.116903153248,right,1,correct,arm2,2,arm22,lion
144,12,lion,0.400398514466,left,1,correct,arm2,3,arm23,lion
145,13,bolt,1.08364007273,space,1,correct,target,NaN,targetNaN,bolt
146,13,coffeepot,0.68358839443,left,1,correct,path,1,path1,bolt
147,13,mosquito,0.500058560865,left,1,correct,path,2,path2,bolt
148,13,canoe,1.56696114037,right,1,correct,path,3,path3,bolt
149,13,domino,1.5502994142,right,1,correct,decision,1,decision1,bolt
150,13,ambulance,1.30039344332,right,1,correct,arm1,1,arm11,bolt
151,13,trunk,0.48370563658,left,1,correct,arm1,2,arm12,bolt
152,13,peach,0.400259055663,left,1,correct,arm1,3,arm13,bolt
153,13,garlic,1.61695024348,left,1,correct,decision,2,decision2,bolt
154,13,mug,0.450281362981,right,1,correct,arm2,1,arm21,bolt
155,13,branch,0.366936206818,right,1,correct,arm2,2,arm22,bolt
156,13,bolt,0.150860812049,right,1,correct,arm2,3,arm23,bolt
157,14,bolt,1.68357782927,space,1,correct,target,NaN,targetNaN,bolt
158,14,coffeepot,0.666948100086,left,1,correct,path,1,path1,bolt
159,14,mosquito,0.183549454436,left,1,correct,path,2,path2,bolt
160,14,canoe,0.266918155598,right,1,correct,path,3,path3,bolt
161,14,domino,1.20030234219,left,1,correct,decision,1,decision1,bolt
162,14,ambulance,0.416914442787,right,1,correct,arm1,1,arm11,bolt
163,14,trunk,0.200258270837,left,1,correct,arm1,2,arm12,bolt
164,14,peach,0.216910639545,left,1,correct,arm1,3,arm13,bolt
165,14,garlic,0.866735470481,right,1,correct,decision,2,decision2,bolt
166,14,mug,0.466747484403,right,1,correct,arm2,1,arm21,bolt
167,14,branch,0.100242030807,right,1,correct,arm2,2,arm22,bolt
168,14,bolt,0.184250069782,right,1,correct,arm2,3,arm23,bolt
169,15,lion,0.76693687099,space,1,correct,target,NaN,targetNaN,lion
170,15,coffeepot,0.583790700417,left,1,correct,path,1,path1,lion
171,15,mosquito,0.366912058089,left,1,correct,path,2,path2,lion
172,15,canoe,0.183394298889,right,1,correct,path,3,path3,lion
173,15,goose,1.46693493915,right,1,correct,decision,1,decision1,lion
174,15,sailor,1.38379685837,left,1,correct,arm1,1,arm11,lion
175,15,cooker,0.200076249661,right,1,correct,arm1,2,arm12,lion
176,15,tooth,0.816993892193,left,1,correct,arm1,3,arm13,lion
177,15,crutches,1.05027315253,left,1,correct,decision,2,decision2,lion
178,15,stapler,0.500269560143,right,1,correct,arm2,1,arm21,lion
179,15,rose,0.133576350054,right,1,correct,arm2,2,arm22,lion
180,15,lion,0.400258451933,left,1,correct,arm2,3,arm23,lion
181,16,bolt,3.55004675803,space,1,correct,target,NaN,targetNaN,bolt
182,16,coffeepot,1.03378559905,left,1,correct,path,1,path1,bolt
183,16,mosquito,0.551084852079,left,1,correct,path,2,path2,bolt
184,16,canoe,0.283599200891,right,1,correct,path,3,path3,bolt
185,16,domino,2.01698803622,right,1,correct,decision,1,decision1,bolt
186,16,ambulance,1.11675222358,right,1,correct,arm1,1,arm11,bolt
187,16,trunk,0.266898836708,left,1,correct,arm1,2,arm12,bolt
188,16,peach,0.266737945611,left,1,correct,arm1,3,arm13,bolt
189,16,garlic,0.583644902566,right,1,correct,decision,2,decision2,bolt
190,16,mug,0.300253078807,right,1,correct,arm2,1,arm21,bolt
191,16,branch,0.150357310893,right,1,correct,arm2,2,arm22,bolt
192,16,bolt,0.266983960988,right,1,correct,arm2,3,arm23,bolt
193,17,lion,0.700823653257,space,1,correct,target,NaN,targetNaN,lion
194,17,coffeepot,0.283600710332,left,1,correct,path,1,path1,lion
195,17,mosquito,0.133713092422,left,1,correct,path,2,path2,lion
196,17,canoe,0.283567505656,right,1,correct,path,3,path3,lion
197,17,goose,0.300360540627,left,1,correct,decision,1,decision1,lion
198,17,sailor,1.53379284358,left,1,correct,arm1,1,arm11,lion
199,17,cooker,0.133622836554,right,1,correct,arm1,2,arm12,lion
200,17,tooth,0.233591684606,left,1,correct,arm1,3,arm13,lion
201,17,crutches,1.0670323791,right,1,correct,decision,2,decision2,lion
202,17,stapler,0.583649430424,right,1,correct,arm2,1,arm21,lion
203,17,rose,0.183780980762,right,1,correct,arm2,2,arm22,lion
204,17,lion,0.216881057015,left,1,correct,arm2,3,arm23,lion
205,18,bolt,2.60027885763,space,0,wrong,target,NaN,targetNaN,bolt
206,18,coffeepot,0.766849633539,left,0,wrong,path,1,path1,bolt
207,18,mosquito,0.366919906344,left,0,wrong,path,2,path2,bolt
208,18,canoe,0.113624358084,right,0,wrong,path,3,path3,bolt
209,18,goose,0.000324196880683,right,0,wrong,decision,1,decision1,bolt
210,18,sailor,7.61686904309,left,0,wrong,arm1,1,arm11,bolt
211,18,cooker,0.150244113756,right,0,wrong,arm1,2,arm12,bolt
212,18,tooth,0.283576259622,left,0,wrong,arm1,3,arm13,bolt
213,18,garlic,1.18357118824,right,0,wrong,decision,2,decision2,bolt
214,18,mug,1.11697590142,right,0,wrong,arm2,1,arm21,bolt
215,18,branch,0.150269469712,right,0,wrong,arm2,2,arm22,bolt
216,18,bolt,0.166872031521,right,0,wrong,arm2,3,arm23,bolt
217,19,lion,1.35024338914,space,1,correct,target,NaN,targetNaN,lion
218,19,coffeepot,0.417028847383,left,1,correct,path,1,path1,lion
219,19,mosquito,0.283535508672,left,1,correct,path,2,path2,lion
220,19,canoe,0.250389851397,right,1,correct,path,3,path3,lion
221,19,goose,0.733622172382,right,1,correct,decision,1,decision1,lion
222,19,sailor,1.08377198502,left,1,correct,arm1,1,arm11,lion
223,19,cooker,0.183582659112,right,1,correct,arm1,2,arm12,lion
224,19,tooth,0.233657188015,left,1,correct,arm1,3,arm13,lion
225,19,crutches,0.533667270094,left,1,correct,decision,2,decision2,lion
226,19,stapler,0.500248430064,right,1,correct,arm2,1,arm21,lion
227,19,rose,0.216940523591,right,1,correct,arm2,2,arm22,lion
228,19,lion,0.316983025055,left,1,correct,arm2,3,arm23,lion
229,20,lion,0.500196812209,space,1,correct,target,NaN,targetNaN,lion
230,20,coffeepot,0.616947828326,left,1,correct,path,1,path1,lion
231,20,mosquito,0.200266421074,left,1,correct,path,2,path2,lion
232,20,canoe,0.150374214863,right,1,correct,path,3,path3,lion
233,20,goose,0.633654833538,right,1,correct,decision,1,decision1,lion
234,20,sailor,0.517016410828,left,1,correct,arm1,1,arm11,lion
235,20,cooker,0.183531946735,right,1,correct,arm1,2,arm12,lion
236,20,tooth,0.516921928851,left,1,correct,arm1,3,arm13,lion
237,20,crutches,1.26694411575,right,1,correct,decision,2,decision2,lion
238,20,stapler,0.483590930002,right,1,correct,arm2,1,arm21,lion
239,20,rose,0.433580093319,right,1,correct,arm2,2,arm22,lion
240,20,lion,0.200257365126,left,1,correct,arm2,3,arm23,lion
