pic_index,trial_num,pic_name,rt,resp,feedback_code,feedback,segment,segment_index,pic_type,trial_target
1,1,lion,3.6835723957,space,-1,miss,target,NaN,targetNaN,lion
2,1,coffeepot,8.28326504258,left,-1,miss,path,1,path1,lion
3,1,mosquito,1.26691181678,left,-1,miss,path,2,path2,lion
4,1,canoe,0.114137518685,right,-1,miss,path,3,path3,lion
5,1,goose,6.25016889046,left,-1,miss,decision,1,decision1,lion
6,1,sailor,7.73346611136,left,-1,miss,arm1,1,arm11,lion
7,1,cooker,2.50001780968,right,-1,miss,arm1,2,arm12,lion
8,1,tooth,2.51688359282,left,-1,miss,arm1,3,arm13,lion
9,1,garlic,6.31682817149,left,-1,miss,decision,2,decision2,lion
10,1,mug,8.18347217841,right,-1,miss,arm2,1,arm21,lion
11,1,branch,2.71687894408,right,-1,miss,arm2,2,arm22,lion
12,1,bolt,3.38356804918,right,-1,miss,arm2,3,arm23,lion
13,2,bolt,10.3501787914,space,0,wrong,target,NaN,targetNaN,bolt
14,2,coffeepot,3.16691187699,left,0,wrong,path,1,path1,bolt
15,2,mosquito,0.566933067515,left,0,wrong,path,2,path2,bolt
16,2,canoe,0.950243932661,right,0,wrong,path,3,path3,bolt
17,2,goose,5.20022778306,right,0,wrong,decision,1,decision1,bolt
18,2,sailor,2.93368514022,left,0,wrong,arm1,1,arm11,bolt
19,2,cooker,0.700251026079,right,0,wrong,arm1,2,arm12,bolt
20,2,tooth,0.600266481284,left,0,wrong,arm1,3,arm13,bolt
21,2,garlic,1.88384968368,right,0,wrong,decision,2,decision2,bolt
22,2,mug,1.28359437105,right,0,wrong,arm2,1,arm21,bolt
23,2,branch,1.36690451158,right,0,wrong,arm2,2,arm22,bolt
24,2,bolt,0.850287762238,right,0,wrong,arm2,3,arm23,bolt
25,3,bolt,9.13344745617,space,-1,miss,target,NaN,targetNaN,bolt
26,3,coffeepot,1.28358501359,left,-1,miss,path,1,path1,bolt
27,3,mosquito,0.450292531867,left,-1,miss,path,2,path2,bolt
28,3,canoe,0.733574176673,right,-1,miss,path,3,path3,bolt
29,3,goose,1.30027149245,right,-1,miss,decision,1,decision1,bolt
30,3,sailor,8.91687459755,left,-1,miss,arm1,1,arm11,bolt
31,3,cooker,0.850242483662,right,-1,miss,arm1,2,arm12,bolt
32,3,tooth,0.283797522541,left,-1,miss,arm1,3,arm13,bolt
33,3,crutches,6.21687109582,left,-1,miss,decision,2,decision2,bolt
34,3,stapler,2.05024749436,right,-1,miss,arm2,1,arm21,bolt
35,3,rose,0.616911001736,right,-1,miss,arm2,2,arm22,bolt
36,3,lion,1.18365902943,left,-1,miss,arm2,3,arm23,bolt
37,4,bolt,6.66682614898,space,1,correct,target,NaN,targetNaN,bolt
38,4,coffeepot,1.38356865267,left,1,correct,path,1,path1,bolt
39,4,mosquito,0.483561347704,left,1,correct,path,2,path2,bolt
40,4,canoe,7.06688597728,right,1,correct,path,3,path3,bolt
41,4,domino,4.16762698162,left,1,correct,decision,1,decision1,bolt
42,4,ambulance,1.86704517808,right,1,correct,arm1,1,arm11,bolt
43,4,trunk,1.800231345,left,1,correct,arm1,2,arm12,bolt
44,4,peach,1.30028386856,left,1,correct,arm1,3,arm13,bolt
45,4,garlic,3.0838320551,left,1,correct,decision,2,decision2,bolt
46,4,mug,1.28357807081,right,1,correct,arm2,1,arm21,bolt
47,4,branch,0.600258029299,right,1,correct,arm2,2,arm22,bolt
48,4,bolt,1.63358238735,right,1,correct,arm2,3,arm23,bolt
49,5,bolt,1.96693312796,space,1,correct,target,NaN,targetNaN,bolt
50,5,coffeepot,3.76688132901,left,1,correct,path,1,path1,bolt
51,5,mosquito,0.300244626822,left,1,correct,path,2,path2,bolt
52,5,canoe,0.500383663224,right,1,correct,path,3,path3,bolt
53,5,domino,1.46699561295,right,1,correct,decision,1,decision1,bolt
54,5,ambulance,5.43352726777,right,1,correct,arm1,1,arm11,bolt
55,5,trunk,0.550277378643,left,1,correct,arm1,2,arm12,bolt
56,5,peach,0.483876790619,left,1,correct,arm1,3,arm13,bolt
57,5,garlic,1.91695217532,left,1,correct,decision,2,decision2,bolt
58,5,mug,0.833890766604,right,1,correct,arm2,1,arm21,bolt
59,5,branch,0.550257757539,right,1,correct,arm2,2,arm22,bolt
60,5,bolt,0.866928358562,right,1,correct,arm2,3,arm23,bolt
61,6,bolt,3.83367825765,space,1,correct,target,NaN,targetNaN,bolt
62,6,coffeepot,1.2002392537,left,1,correct,path,1,path1,bolt
63,6,mosquito,0.317033133702,left,1,correct,path,2,path2,bolt
64,6,canoe,0.266920570517,right,1,correct,path,3,path3,bolt
65,6,domino,0.75028842641,right,1,correct,decision,1,decision1,bolt
66,6,ambulance,0.683756832033,right,1,correct,arm1,1,arm11,bolt
67,6,trunk,0.833866920089,left,1,correct,arm1,2,arm12,bolt
68,6,peach,0.600267386995,left,1,correct,arm1,3,arm13,bolt
69,6,garlic,4.10028006509,right,1,correct,decision,2,decision2,bolt
70,6,mug,1.11688021198,right,1,correct,arm2,1,arm21,bolt
71,6,branch,0.350366547704,right,1,correct,arm2,2,arm22,bolt
72,6,bolt,1.76692177798,right,1,correct,arm2,3,arm23,bolt
73,7,bolt,0.516934304964,space,1,correct,target,NaN,targetNaN,bolt
74,7,coffeepot,1.51690925099,left,1,correct,path,1,path1,bolt
75,7,mosquito,0.283578070812,left,1,correct,path,2,path2,bolt
76,7,canoe,0.114199701697,right,1,correct,path,3,path3,bolt
77,7,domino,1.66692968667,left,1,correct,decision,1,decision1,bolt
78,7,ambulance,0.600375754526,right,1,correct,arm1,1,arm11,bolt
79,7,trunk,0.517102440819,left,1,correct,arm1,2,arm12,bolt
80,7,peach,0.316916012438,left,1,correct,arm1,3,arm13,bolt
81,7,garlic,0.800283868564,left,1,correct,decision,2,decision2,bolt
82,7,mug,0.500269862125,right,1,correct,arm2,1,arm21,bolt
83,7,branch,0.516894761473,right,1,correct,arm2,2,arm22,bolt
84,7,bolt,1.45080086286,right,1,correct,arm2,3,arm23,bolt
85,8,lion,3.40018389258,space,1,correct,target,NaN,targetNaN,lion
86,8,coffeepot,1.08359147329,left,1,correct,path,1,path1,lion
87,8,mosquito,0.21695652185,left,1,correct,path,2,path2,lion
88,8,canoe,0.33356053289,right,1,correct,path,3,path3,lion
89,8,goose,4.31690242887,right,1,correct,decision,1,decision1,lion
90,8,sailor,1.25018881285,left,1,correct,arm1,1,arm11,lion
91,8,cooker,0.516911363695,right,1,correct,arm1,2,arm12,lion
92,8,tooth,0.250237714266,left,1,correct,arm1,3,arm13,lion
93,8,crutches,3.2502322807,right,1,correct,decision,2,decision2,lion
94,8,stapler,1.31720911781,right,1,correct,arm2,1,arm21,lion
95,8,rose,0.633577255765,right,1,correct,arm2,2,arm22,lion
96,8,lion,1.05026439857,left,1,correct,arm2,3,arm23,lion
97,9,lion,1.31691752165,space,1,correct,target,NaN,targetNaN,lion
98,9,coffeepot,5.6168590819,left,1,correct,path,1,path1,lion
99,9,mosquito,0.383603366558,left,1,correct,path,2,path2,lion
100,9,canoe,0.20025193179,right,1,correct,path,3,path3,lion
101,9,goose,4.31694438728,left,1,correct,decision,1,decision1,lion
102,9,sailor,2.78356992058,left,1,correct,arm1,1,arm11,lion
103,9,cooker,0.433577074669,right,1,correct,arm1,2,arm12,lion
104,9,tooth,0.100226636045,left,1,correct,arm1,3,arm13,lion
105,9,crutches,1.33358015353,right,1,correct,decision,2,decision2,lion
106,9,stapler,1.55083219591,right,1,correct,arm2,1,arm21,lion
107,9,rose,0.783584711608,right,1,correct,arm2,2,arm22,lion
108,9,lion,0.366894248407,left,1,correct,arm2,3,arm23,lion
109,10,lion,0.950367694721,space,1,correct,target,NaN,targetNaN,lion
110,10,coffeepot,0.917129668407,left,1,correct,path,1,path1,lion
111,10,mosquito,0.166907952866,left,1,correct,path,2,path2,lion
112,10,canoe,0.200257063378,right,1,correct,path,3,path3,lion
113,10,goose,1.5670619614,right,1,correct,decision,1,decision1,lion
114,10,sailor,0.683635182446,left,1,correct,arm1,1,arm11,lion
115,10,cooker,0.350264217472,right,1,correct,arm1,2,arm12,lion
116,10,tooth,0.100231163902,left,1,correct,arm1,3,arm13,lion
117,10,crutches,1.41698960587,left,1,correct,decision,2,decision2,lion
118,10,stapler,0.90037164907,right,1,correct,arm2,1,arm21,lion
119,10,rose,0.2503164995,right,1,correct,arm2,2,arm22,lion
120,10,lion,0.966918336926,left,1,correct,arm2,3,arm23,lion
121,11,lion,1.16733297077,space,1,correct,target,NaN,targetNaN,lion
122,11,coffeepot,2.48355410318,left,1,correct,path,1,path1,lion
123,11,mosquito,0.250956743024,left,1,correct,path,2,path2,lion
124,11,canoe,0.113374418346,right,1,correct,path,3,path3,lion
125,11,goose,0.0671135794837,right,1,correct,decision,1,decision1,lion
126,11,sailor,6.73351893667,left,1,correct,arm1,1,arm11,lion
127,11,cooker,2.53357278812,right,1,correct,arm1,2,arm12,lion
128,11,tooth,0.366700756596,left,1,correct,arm1,3,arm13,lion
129,11,crutches,6.73351320112,right,1,correct,decision,2,decision2,lion
130,11,stapler,0.783597087953,right,1,correct,arm2,1,arm21,lion
131,11,rose,0.21689584828,right,1,correct,arm2,2,arm22,lion
132,11,lion,0.500249939272,left,1,correct,arm2,3,arm23,lion
133,12,bolt,5.61689047515,space,1,correct,target,NaN,targetNaN,bolt
134,12,coffeepot,0.733601645799,left,1,correct,path,1,path1,bolt
135,12,mosquito,0.183568169596,left,1,correct,path,2,path2,bolt
136,12,canoe,0.350252746604,right,1,correct,path,3,path3,bolt
137,12,domino,1.50032359315,right,1,correct,decision,1,decision1,bolt
138,12,ambulance,0.700211784337,right,1,correct,arm1,1,arm11,bolt
139,12,trunk,0.550232401351,left,1,correct,arm1,2,arm12,bolt
140,12,peach,1.10029787477,left,1,correct,arm1,3,arm13,bolt
141,12,garlic,1.71703530732,left,1,correct,decision,2,decision2,bolt
142,12,mug,0.650051225442,right,1,correct,arm2,1,arm21,bolt
143,12,branch,0.683592318557,right,1,correct,arm2,2,arm22,bolt
144,12,bolt,0.733578704763,right,1,correct,arm2,3,arm23,bolt
145,13,bolt,0.716921808198,space,1,correct,target,NaN,targetNaN,bolt
146,13,coffeepot,0.800250663888,left,1,correct,path,1,path1,bolt
147,13,mosquito,0.233588363975,left,1,correct,path,2,path2,bolt
148,13,canoe,0.533577618189,right,1,correct,path,3,path3,bolt
149,13,domino,1.80029141507,left,1,correct,decision,1,decision1,bolt
150,13,ambulance,1.25030351942,right,1,correct,arm1,1,arm11,bolt
151,13,trunk,0.450333584566,left,1,correct,arm1,2,arm12,bolt
152,13,peach,0.31671437039,left,1,correct,arm1,3,arm13,bolt
153,13,garlic,0.766964340117,right,1,correct,decision,2,decision2,bolt
154,13,mug,0.78357897629,right,1,correct,arm2,1,arm21,bolt
155,13,branch,0.433695403393,right,1,correct,arm2,2,arm22,bolt
156,13,bolt,0.816949217115,right,1,correct,arm2,3,arm23,bolt
157,14,lion,2.40023551066,space,1,correct,target,NaN,targetNaN,lion
158,14,coffeepot,0.65025166003,left,1,correct,path,1,path1,lion
159,14,mosquito,0.250039996346,left,1,correct,path,2,path2,lion
160,14,canoe,0.583599925507,right,1,correct,path,3,path3,lion
161,14,goose,1.33356083441,right,1,correct,decision,1,decision1,lion
162,14,sailor,1.06694031227,left,1,correct,arm1,1,arm11,lion
163,14,cooker,0.250275748549,right,1,correct,arm1,2,arm12,lion
164,14,tooth,0.2002736656,left,1,correct,arm1,3,arm13,lion
165,14,crutches,3.06692552124,left,1,correct,decision,2,decision2,lion
166,14,stapler,0.683609826257,right,1,correct,arm2,1,arm21,lion
167,14,rose,0.300251267618,right,1,correct,arm2,2,arm22,lion
168,14,lion,0.783865742618,left,1,correct,arm2,3,arm23,lion
169,15,lion,5.53353897994,space,1,correct,target,NaN,targetNaN,lion
170,15,coffeepot,0.766718324972,left,1,correct,path,1,path1,lion
171,15,mosquito,0.200247705681,left,1,correct,path,2,path2,lion
172,15,canoe,0.567063470837,right,1,correct,path,3,path3,lion
173,15,goose,2.48358640214,left,1,correct,decision,1,decision1,lion
174,15,sailor,0.633599593304,left,1,correct,arm1,1,arm11,lion
175,15,cooker,0.283561166609,right,1,correct,arm1,2,arm12,lion
176,15,tooth,0.200473194709,left,1,correct,arm1,3,arm13,lion
177,15,crutches,0.650918467203,right,1,correct,decision,2,decision2,lion
178,15,stapler,0.566951179178,right,1,correct,arm2,1,arm21,lion
179,15,rose,0.23364692484,right,1,correct,arm2,2,arm22,lion
180,15,lion,0.516947285272,left,1,correct,arm2,3,arm23,lion
181,16,lion,3.40021015448,space,1,correct,target,NaN,targetNaN,lion
182,16,coffeepot,0.850259991363,left,1,correct,path,1,path1,lion
183,16,mosquito,0.167079107137,left,1,correct,path,2,path2,lion
184,16,canoe,0.300280849915,right,1,correct,path,3,path3,lion
185,16,goose,1.28341023694,right,1,correct,decision,1,decision1,lion
186,16,sailor,0.550250211265,left,1,correct,arm1,1,arm11,lion
187,16,cooker,0.200392598053,right,1,correct,arm1,2,arm12,lion
188,16,tooth,0.2171110739,left,1,correct,arm1,3,arm13,lion
189,16,crutches,1.16692787549,left,1,correct,decision,2,decision2,lion
190,16,stapler,4.31687646895,right,1,correct,arm2,1,arm21,lion
191,16,rose,0.133694075281,right,1,correct,arm2,2,arm22,lion
192,16,lion,1.51692736242,left,1,correct,arm2,3,arm23,lion
193,17,lion,0.850291686598,space,1,correct,target,NaN,targetNaN,lion
194,17,coffeepot,0.583644600585,left,1,correct,path,1,path1,lion
195,17,mosquito,0.150257999077,left,1,correct,path,2,path2,lion
196,17,canoe,0.366934697609,right,1,correct,path,3,path3,lion
197,17,goose,0.866961864987,right,1,correct,decision,1,decision1,lion
198,17,sailor,0.783588032005,left,1,correct,arm1,1,arm11,lion
199,17,cooker,0.300361144356,right,1,correct,arm1,2,arm12,lion
200,17,tooth,0.350404883968,left,1,correct,arm1,3,arm13,lion
201,17,crutches,0.933761812514,right,1,correct,decision,2,decision2,lion
202,17,stapler,0.750307443552,right,1,correct,arm2,1,arm21,lion
203,17,rose,0.217799916863,right,1,correct,arm2,2,arm22,lion
204,17,lion,0.816940462915,left,1,correct,arm2,3,arm23,lion
205,18,bolt,1.01690200623,space,1,correct,target,NaN,targetNaN,bolt
206,18,coffeepot,0.93357526348,left,1,correct,path,1,path1,bolt
207,18,mosquito,0.216908828355,left,1,correct,path,2,path2,bolt
208,18,canoe,0.200264307903,right,1,correct,path,3,path3,bolt
209,18,domino,0.833623319399,right,1,correct,decision,1,decision1,bolt
210,18,ambulance,1.21717959596,right,1,correct,arm1,1,arm11,bolt
211,18,trunk,0.416994133731,left,1,correct,arm1,2,arm12,bolt
212,18,peach,0.516927664401,left,1,correct,arm1,3,arm13,bolt
213,18,garlic,1.0335812401,right,1,correct,decision,2,decision2,bolt
214,18,mug,3.21689765947,right,1,correct,arm2,1,arm21,bolt
215,18,branch,0.516915288055,right,1,correct,arm2,2,arm22,bolt
216,18,bolt,0.516719683306,right,1,correct,arm2,3,arm23,bolt
217,19,lion,1.06694091577,space,-1,miss,target,NaN,targetNaN,lion
218,19,coffeepot,1.21704164636,left,-1,miss,path,1,path1,lion
219,19,mosquito,0.583579097176,left,-1,miss,path,2,path2,lion
220,19,canoe,0.583669353044,right,-1,miss,path,3,path3,lion
221,19,goose,1.00032842276,right,-1,miss,decision,1,decision1,lion
222,19,sailor,0.767050068127,left,-1,miss,arm1,1,arm11,lion
223,19,cooker,1.06671995483,right,-1,miss,arm1,2,arm12,lion
224,19,tooth,0.23358051572,left,-1,miss,arm1,3,arm13,lion
225,19,garlic,10.4667640869,left,-1,miss,decision,2,decision2,lion
226,19,mug,0.433593676891,right,-1,miss,arm2,1,arm21,lion
227,19,branch,0.366708303103,right,-1,miss,arm2,2,arm22,lion
228,19,bolt,0.416938591516,right,-1,miss,arm2,3,arm23,lion
229,20,lion,2.70021933084,space,1,correct,target,NaN,targetNaN,lion
230,20,coffeepot,2.81701985211,left,1,correct,path,1,path1,lion
231,20,mosquito,0.150238076458,left,1,correct,path,2,path2,lion
232,20,canoe,0.266989998054,right,1,correct,path,3,path3,lion
233,20,goose,1.18364725681,left,1,correct,decision,1,decision1,lion
234,20,sailor,1.78359920089,left,1,correct,arm1,1,arm11,lion
235,20,cooker,0.416978436988,right,1,correct,arm1,2,arm12,lion
236,20,tooth,0.983639831189,left,1,correct,arm1,3,arm13,lion
237,20,crutches,1.43382037315,left,1,correct,decision,2,decision2,lion
238,20,stapler,0.516894157976,right,1,correct,arm2,1,arm21,lion
239,20,rose,0.18358024396,right,1,correct,arm2,2,arm22,lion
240,20,lion,0.500262617599,left,1,correct,arm2,3,arm23,lion
241,21,lion,0.76708749868,space,1,correct,target,NaN,targetNaN,lion
242,21,coffeepot,1.60025289771,left,1,correct,path,1,path1,lion
243,21,mosquito,0.283582598669,left,1,correct,path,2,path2,lion
244,21,canoe,0.113896332914,right,1,correct,path,3,path3,lion
245,21,goose,2.65036032954,right,1,correct,decision,1,decision1,lion
246,21,sailor,0.950298267184,left,1,correct,arm1,1,arm11,lion
247,21,cooker,0.566942123231,right,1,correct,arm1,2,arm12,lion
248,21,tooth,0.283701833105,left,1,correct,arm1,3,arm13,lion
249,21,crutches,2.26692630583,right,1,correct,decision,2,decision2,lion
250,21,stapler,0.550280699041,right,1,correct,arm2,1,arm21,lion
251,21,rose,0.351102178684,right,1,correct,arm2,2,arm22,lion
252,21,lion,0.250244053314,left,1,correct,arm2,3,arm23,lion
253,22,bolt,1.31701894663,space,1,correct,target,NaN,targetNaN,bolt
254,22,coffeepot,2.0836192444,left,1,correct,path,1,path1,bolt
255,22,mosquito,1.6335745391,left,1,correct,path,2,path2,bolt
256,22,canoe,1.10034858715,right,1,correct,path,3,path3,bolt
257,22,domino,3.13350209291,left,1,correct,decision,1,decision1,bolt
258,22,ambulance,0.583594793919,right,1,correct,arm1,1,arm11,bolt
259,22,trunk,0.850239766994,left,1,correct,arm1,2,arm12,bolt
260,22,peach,0.517040861538,left,1,correct,arm1,3,arm13,bolt
261,22,garlic,1.15025377297,right,1,correct,decision,2,decision2,bolt
262,22,mug,2.26689521433,right,1,correct,arm2,1,arm21,bolt
263,22,branch,0.416959419847,right,1,correct,arm2,2,arm22,bolt
264,22,bolt,0.550250814995,right,1,correct,arm2,3,arm23,bolt
265,23,lion,2.30091384868,space,1,correct,target,NaN,targetNaN,lion
266,23,coffeepot,7.25019847252,left,1,correct,path,1,path1,lion
267,23,mosquito,0.350348436274,left,1,correct,path,2,path2,lion
268,23,canoe,0.916925611673,right,1,correct,path,3,path3,lion
269,23,goose,2.00037309807,right,1,correct,decision,1,decision1,lion
270,23,sailor,2.46700346121,left,1,correct,arm1,1,arm11,lion
271,23,cooker,0.51690291171,right,1,correct,arm1,2,arm12,lion
272,23,tooth,0.283601917792,left,1,correct,arm1,3,arm13,lion
273,23,crutches,1.03358848509,right,1,correct,decision,2,decision2,lion
274,23,stapler,0.650245622965,right,1,correct,arm2,1,arm21,lion
275,23,rose,0.150490430649,right,1,correct,arm2,2,arm22,lion
276,23,lion,0.333887748187,left,1,correct,arm2,3,arm23,lion
277,24,bolt,4.80064368481,space,1,correct,target,NaN,targetNaN,bolt
278,24,coffeepot,2.01689627091,left,1,correct,path,1,path1,bolt
279,24,mosquito,0.233555461513,left,1,correct,path,2,path2,bolt
280,24,canoe,1.31690876791,right,1,correct,path,3,path3,bolt
281,24,domino,2.5002626176,right,1,correct,decision,1,decision1,bolt
282,24,ambulance,0.716980067082,right,1,correct,arm1,1,arm11,bolt
283,24,trunk,0.467287208885,left,1,correct,arm1,2,arm12,bolt
284,24,peach,0.283543658908,left,1,correct,arm1,3,arm13,bolt
285,24,garlic,1.7842134845,left,1,correct,decision,2,decision2,bolt
286,24,mug,0.716993348673,right,1,correct,arm2,1,arm21,bolt
287,24,branch,0.334030527854,right,1,correct,arm2,2,arm22,bolt
288,24,bolt,1.25027423911,right,1,correct,arm2,3,arm23,bolt
289,25,bolt,5.26690608147,space,1,correct,target,NaN,targetNaN,bolt
290,25,coffeepot,0.98372706864,left,1,correct,path,1,path1,bolt
291,25,mosquito,0.133535599103,left,1,correct,path,2,path2,bolt
292,25,canoe,0.466909884708,right,1,correct,path,3,path3,bolt
293,25,domino,1.70033464138,left,1,correct,decision,1,decision1,bolt
294,25,ambulance,0.583881258033,right,1,correct,arm1,1,arm11,bolt
295,25,trunk,0.467266380554,left,1,correct,arm1,2,arm12,bolt
296,25,peach,0.583593586227,left,1,correct,arm1,3,arm13,bolt
297,25,garlic,2.70045387559,left,1,correct,decision,2,decision2,bolt
298,25,mug,1.15024954709,right,1,correct,arm2,1,arm21,bolt
299,25,branch,0.316913597519,right,1,correct,arm2,2,arm22,bolt
300,25,bolt,1.23355365056,right,1,correct,arm2,3,arm23,bolt
301,26,lion,1.18358024419,space,1,correct,target,NaN,targetNaN,lion
302,26,coffeepot,0.616909190314,left,1,correct,path,1,path1,lion
303,26,mosquito,0.166731063277,left,1,correct,path,2,path2,lion
304,26,canoe,0.26771747903,right,1,correct,path,3,path3,lion
305,26,goose,0.816748178564,left,1,correct,decision,1,decision1,lion
306,26,sailor,0.90072090039,left,1,correct,arm1,1,arm11,lion
307,26,cooker,0.400301617803,right,1,correct,arm1,2,arm12,lion
308,26,tooth,0.217078473186,left,1,correct,arm1,3,arm13,lion
309,26,crutches,0.633598989574,right,1,correct,decision,2,decision2,lion
310,26,stapler,0.750266692601,right,1,correct,arm2,1,arm21,lion
311,26,rose,0.400268111378,right,1,correct,arm2,2,arm22,lion
312,26,lion,0.200230197748,left,1,correct,arm2,3,arm23,lion
313,27,bolt,0.716929052724,space,1,correct,target,NaN,targetNaN,bolt
314,27,coffeepot,0.883590386482,left,1,correct,path,1,path1,bolt
315,27,mosquito,0.217035005335,left,1,correct,path,2,path2,bolt
316,27,canoe,0.316917220131,right,1,correct,path,3,path3,bolt
317,27,domino,1.20028664544,right,1,correct,decision,1,decision1,bolt
318,27,ambulance,0.700340376468,right,1,correct,arm1,1,arm11,bolt
319,27,trunk,0.383568954421,left,1,correct,arm1,2,arm12,bolt
320,27,peach,0.500267447205,left,1,correct,arm1,3,arm13,bolt
321,27,garlic,0.683594129747,left,1,correct,decision,2,decision2,bolt
322,27,mug,0.883582236478,right,1,correct,arm2,1,arm21,bolt
323,27,branch,0.500316952355,right,1,correct,arm2,2,arm22,bolt
324,27,bolt,0.750237110537,right,1,correct,arm2,3,arm23,bolt
325,28,lion,0.816942877835,space,1,correct,target,NaN,targetNaN,lion
326,28,coffeepot,0.83362362138,left,1,correct,path,1,path1,lion
327,28,mosquito,0.183597751893,left,1,correct,path,2,path2,lion
328,28,canoe,0.666914593661,right,1,correct,path,3,path3,lion
329,28,goose,0.866903908085,right,1,correct,decision,1,decision1,lion
330,28,sailor,1.01694004051,left,1,correct,arm1,1,arm11,lion
331,28,cooker,0.466892075259,right,1,correct,arm1,2,arm12,lion
332,28,tooth,0.166950213257,left,1,correct,arm1,3,arm13,lion
333,28,crutches,1.13358721719,left,1,correct,decision,2,decision2,lion
334,28,stapler,0.51692675869,right,1,correct,arm2,1,arm21,lion
335,28,rose,0.666922140168,right,1,correct,arm2,2,arm22,lion
336,28,lion,0.300253078807,left,1,correct,arm2,3,arm23,lion
337,29,lion,0.833584681619,space,1,correct,target,NaN,targetNaN,lion
338,29,coffeepot,7.7669821498,left,1,correct,path,1,path1,lion
339,29,mosquito,0.316925672116,left,1,correct,path,2,path2,lion
340,29,canoe,0.11410401226,right,1,correct,path,3,path3,lion
341,29,goose,2.01670036418,right,1,correct,decision,1,decision1,lion
342,29,sailor,0.533632254461,left,1,correct,arm1,1,arm11,lion
343,29,cooker,0.450347168371,right,1,correct,arm1,2,arm12,lion
344,29,tooth,0.416688048514,left,1,correct,arm1,3,arm13,lion
345,29,crutches,0.466935240896,left,1,correct,decision,2,decision2,lion
346,29,stapler,0.383587971795,right,1,correct,arm2,1,arm21,lion
347,29,rose,0.250110933324,right,1,correct,arm2,2,arm22,lion
348,29,lion,0.316945594735,left,1,correct,arm2,3,arm23,lion
349,30,lion,0.85029078112,space,1,correct,target,NaN,targetNaN,lion
350,30,coffeepot,0.766950756544,left,1,correct,path,1,path1,lion
351,30,mosquito,0.150306296535,left,1,correct,path,2,path2,lion
352,30,canoe,0.217187746195,right,1,correct,path,3,path3,lion
353,30,goose,1.31699721259,left,1,correct,decision,1,decision1,lion
354,30,sailor,1.33384820446,left,1,correct,arm1,1,arm11,lion
355,30,cooker,0.233595005237,right,1,correct,arm1,2,arm12,lion
356,30,tooth,0.316930501722,left,1,correct,arm1,3,arm13,lion
357,30,crutches,2.4004733758,left,1,correct,decision,2,decision2,lion
358,30,stapler,0.533440573839,right,1,correct,arm2,1,arm21,lion
359,30,rose,0.183728758944,right,1,correct,arm2,2,arm22,lion
360,30,lion,0.184350287076,left,1,correct,arm2,3,arm23,lion
361,31,lion,1.06691646529,space,1,correct,target,NaN,targetNaN,lion
362,31,coffeepot,0.516915891785,left,1,correct,path,1,path1,lion
363,31,mosquito,0.183571188478,left,1,correct,path,2,path2,lion
364,31,canoe,0.366946771974,right,1,correct,path,3,path3,lion
365,31,goose,1.25018337951,left,1,correct,decision,1,decision1,lion
366,31,sailor,2.18358114967,left,1,correct,arm1,1,arm11,lion
367,31,cooker,0.166985530639,right,1,correct,arm1,2,arm12,lion
368,31,tooth,0.250499727903,left,1,correct,arm1,3,arm13,lion
369,31,crutches,1.66701933905,left,1,correct,decision,2,decision2,lion
370,31,stapler,0.583653354319,right,1,correct,arm2,1,arm21,lion
371,31,rose,0.133566086879,right,1,correct,arm2,2,arm22,lion
372,31,lion,0.216923921136,left,1,correct,arm2,3,arm23,lion
373,32,bolt,0.600325041916,space,1,correct,target,NaN,targetNaN,bolt
374,32,coffeepot,0.616921868408,left,1,correct,path,1,path1,bolt
375,32,mosquito,0.350322174374,left,1,correct,path,2,path2,bolt
376,32,canoe,0.166929082945,right,1,correct,path,3,path3,bolt
377,32,domino,0.383752485272,right,1,correct,decision,1,decision1,bolt
378,32,ambulance,0.550325977849,right,1,correct,arm1,1,arm11,bolt
379,32,trunk,0.400268111378,left,1,correct,arm1,2,arm12,bolt
380,32,peach,0.400287128519,left,1,correct,arm1,3,arm13,bolt
381,32,garlic,1.03361444478,left,1,correct,decision,2,decision2,bolt
382,32,mug,1.33370965137,right,1,correct,arm2,1,arm21,bolt
383,32,branch,0.467083151918,right,1,correct,arm2,2,arm22,bolt
384,32,bolt,0.566957216477,right,1,correct,arm2,3,arm23,bolt
385,33,bolt,1.20026098751,space,1,correct,target,NaN,targetNaN,bolt
386,33,coffeepot,0.550242664758,left,1,correct,path,1,path1,bolt
387,33,mosquito,0.350022126222,left,1,correct,path,2,path2,bolt
388,33,canoe,0.650256791618,right,1,correct,path,3,path3,bolt
389,33,domino,0.567867623642,left,1,correct,decision,1,decision1,bolt
390,33,ambulance,0.500313027995,right,1,correct,arm1,1,arm11,bolt
391,33,trunk,0.250311971642,left,1,correct,arm1,2,arm12,bolt
392,33,peach,0.383571973303,left,1,correct,arm1,3,arm13,bolt
393,33,garlic,1.05030213087,right,1,correct,decision,2,decision2,bolt
394,33,mug,0.583591473289,right,1,correct,arm2,1,arm21,bolt
395,33,branch,0.23380147689,right,1,correct,arm2,2,arm22,bolt
396,33,bolt,0.616976505145,right,1,correct,arm2,3,arm23,bolt
397,34,bolt,3.48353568953,space,1,correct,target,NaN,targetNaN,bolt
398,34,coffeepot,0.766928419005,left,1,correct,path,1,path1,bolt
399,34,mosquito,0.183583262842,left,1,correct,path,2,path2,bolt
400,34,canoe,0.200239253696,right,1,correct,path,3,path3,bolt
401,34,domino,1.8502823289,left,1,correct,decision,1,decision1,bolt
402,34,ambulance,0.516930380836,right,1,correct,arm1,1,arm11,bolt
403,34,trunk,0.433609977365,left,1,correct,arm1,2,arm12,bolt
404,34,peach,0.183588997927,left,1,correct,arm1,3,arm13,bolt
405,34,garlic,0.533819105243,left,1,correct,decision,2,decision2,bolt
406,34,mug,0.633581179893,right,1,correct,arm2,1,arm21,bolt
407,34,branch,0.500321781961,right,1,correct,arm2,2,arm22,bolt
408,34,bolt,0.650250452571,right,1,correct,arm2,3,arm23,bolt
409,35,bolt,4.90023309574,space,1,correct,target,NaN,targetNaN,bolt
410,35,coffeepot,0.950401804876,left,1,correct,path,1,path1,bolt
411,35,mosquito,0.183772226563,left,1,correct,path,2,path2,bolt
412,35,canoe,0.250215376727,right,1,correct,path,3,path3,bolt
413,35,domino,1.68359745014,left,1,correct,decision,1,decision1,bolt
414,35,ambulance,3.53410285315,right,1,correct,arm1,1,arm11,bolt
415,35,trunk,0.250241034664,left,1,correct,arm1,2,arm12,bolt
416,35,peach,0.216917582089,left,1,correct,arm1,3,arm13,bolt
417,35,garlic,2.18356032157,right,1,correct,decision,2,decision2,bolt
418,35,mug,1.98358187405,right,1,correct,arm2,1,arm21,bolt
419,35,branch,0.250454449095,right,1,correct,arm2,2,arm22,bolt
420,35,bolt,0.567002797034,right,1,correct,arm2,3,arm23,bolt
421,36,bolt,0.600264972076,space,1,correct,target,NaN,targetNaN,bolt
422,36,coffeepot,4.40023913281,left,1,correct,path,1,path1,bolt
423,36,mosquito,0.133771955036,left,1,correct,path,2,path2,bolt
424,36,canoe,0.250252807047,right,1,correct,path,3,path3,bolt
425,36,domino,2.35023795557,left,1,correct,decision,1,decision1,bolt
426,36,ambulance,3.31689548609,right,1,correct,arm1,1,arm11,bolt
427,36,trunk,0.350149510894,left,1,correct,arm1,2,arm12,bolt
428,36,peach,0.26693868218,left,1,correct,arm1,3,arm13,bolt
429,36,garlic,1.90080451523,left,1,correct,decision,2,decision2,bolt
430,36,mug,0.750387436477,right,1,correct,arm2,1,arm21,bolt
431,36,branch,0.116969562136,right,1,correct,arm2,2,arm22,bolt
432,36,bolt,0.48357372405,right,1,correct,arm2,3,arm23,bolt
433,37,lion,0.78362395335,space,1,correct,target,NaN,targetNaN,lion
434,37,coffeepot,0.916904481594,left,1,correct,path,1,path1,lion
435,37,mosquito,0.217041948112,left,1,correct,path,2,path2,lion
436,37,canoe,0.283762204926,right,1,correct,path,3,path3,lion
437,37,goose,0.616856968962,left,1,correct,decision,1,decision1,lion
438,37,sailor,1.28362153843,left,1,correct,arm1,1,arm11,lion
439,37,cooker,0.183572999667,right,1,correct,arm1,2,arm12,lion
440,37,tooth,0.266921777977,left,1,correct,arm1,3,arm13,lion
441,37,crutches,1.26692268369,right,1,correct,decision,2,decision2,lion
442,37,stapler,2.78358803224,right,1,correct,arm2,1,arm21,lion
443,37,rose,0.416933459928,right,1,correct,arm2,2,arm22,lion
444,37,lion,0.733728124993,left,1,correct,arm2,3,arm23,lion
445,38,bolt,0.933601223398,space,1,correct,target,NaN,targetNaN,bolt
446,38,coffeepot,0.61691794428,left,1,correct,path,1,path1,bolt
447,38,mosquito,0.183877273696,left,1,correct,path,2,path2,bolt
448,38,canoe,0.266966151306,right,1,correct,path,3,path3,bolt
449,38,domino,1.30033276975,left,1,correct,decision,1,decision1,bolt
450,38,ambulance,1.00038004084,right,1,correct,arm1,1,arm11,bolt
451,38,trunk,0.583616829477,left,1,correct,arm1,2,arm12,bolt
452,38,peach,0.216925128596,left,1,correct,arm1,3,arm13,bolt
453,38,garlic,2.31696551736,right,1,correct,decision,2,decision2,bolt
454,38,mug,1.70029419195,right,1,correct,arm2,1,arm21,bolt
455,38,branch,0.300238589523,right,1,correct,arm2,2,arm22,bolt
456,38,bolt,0.250278766965,right,1,correct,arm2,3,arm23,bolt
457,39,bolt,0.883588273544,space,1,correct,target,NaN,targetNaN,bolt
458,39,coffeepot,0.817853587447,left,1,correct,path,1,path1,bolt
459,39,mosquito,0.183551265625,left,1,correct,path,2,path2,bolt
460,39,canoe,0.666935120011,right,1,correct,path,3,path3,bolt
461,39,domino,1.81730752392,left,1,correct,decision,1,decision1,bolt
462,39,ambulance,0.616906473879,right,1,correct,arm1,1,arm11,bolt
463,39,trunk,0.350262708263,left,1,correct,arm1,2,arm12,bolt
464,39,peach,0.184319497552,left,1,correct,arm1,3,arm13,bolt
465,39,garlic,0.917130875867,right,1,correct,decision,2,decision2,bolt
466,39,mug,0.50025839149,right,1,correct,arm2,1,arm21,bolt
467,39,branch,0.200321057579,right,1,correct,arm2,2,arm22,bolt
468,39,bolt,0.233635152457,right,1,correct,arm2,3,arm23,bolt
469,40,bolt,0.466935240896,space,1,correct,target,NaN,targetNaN,bolt
470,40,coffeepot,0.483608135954,left,1,correct,path,1,path1,bolt
471,40,mosquito,0.133820856223,left,1,correct,path,2,path2,bolt
472,40,canoe,0.300656664651,right,1,correct,path,3,path3,bolt
473,40,domino,1.1503008632,right,1,correct,decision,1,decision1,bolt
474,40,ambulance,2.8503152316,right,1,correct,arm1,1,arm11,bolt
475,40,trunk,0.316923860926,left,1,correct,arm1,2,arm12,bolt
476,40,peach,0.466958786128,left,1,correct,arm1,3,arm13,bolt
477,40,garlic,3.6001907147,right,1,correct,decision,2,decision2,bolt
478,40,mug,0.633580878144,right,1,correct,arm2,1,arm21,bolt
479,40,branch,0.25027212617,right,1,correct,arm2,2,arm22,bolt
480,40,bolt,0.233602249529,right,1,correct,arm2,3,arm23,bolt
481,41,lion,5.26685446338,space,1,correct,target,NaN,targetNaN,lion
482,41,coffeepot,0.500227903714,left,1,correct,path,1,path1,lion
483,41,mosquito,0.33359675575,left,1,correct,path,2,path2,lion
484,41,canoe,0.350226183189,right,1,correct,path,3,path3,lion
485,41,goose,0.900322446134,left,1,correct,decision,1,decision1,lion
486,41,sailor,0.916946440004,left,1,correct,arm1,1,arm11,lion
487,41,cooker,0.300283868564,right,1,correct,arm1,2,arm12,lion
488,41,tooth,0.266975810751,left,1,correct,arm1,3,arm13,lion
489,41,crutches,0.783602521289,right,1,correct,decision,2,decision2,lion
490,41,stapler,0.63372094091,right,1,correct,arm2,1,arm21,lion
491,41,rose,0.283668024698,right,1,correct,arm2,2,arm22,lion
492,41,lion,0.283627273748,left,1,correct,arm2,3,arm23,lion
493,42,bolt,0.416937082075,space,-1,miss,target,NaN,targetNaN,bolt
494,42,coffeepot,0.667001529131,left,-1,miss,path,1,path1,bolt
495,42,mosquito,0.250737291295,left,-1,miss,path,2,path2,bolt
496,42,canoe,0.284091835376,right,-1,miss,path,3,path3,bolt
497,42,domino,0.26735102199,left,-1,miss,decision,1,decision1,bolt
498,42,ambulance,0.617003370542,right,-1,miss,arm1,1,arm11,bolt
499,42,trunk,0.333627847256,left,-1,miss,arm1,2,arm12,bolt
500,42,peach,0.300250663888,left,-1,miss,arm1,3,arm13,bolt
501,42,crutches,0.533603879856,right,-1,miss,decision,2,decision2,bolt
502,42,stapler,0.583621961065,right,-1,miss,arm2,1,arm21,bolt
503,42,rose,0.150239283917,right,-1,miss,arm2,2,arm22,bolt
504,42,lion,0.616933339043,left,-1,miss,arm2,3,arm23,bolt
505,43,bolt,1.86690390785,space,1,correct,target,NaN,targetNaN,bolt
506,43,coffeepot,0.616915529594,left,1,correct,path,1,path1,bolt
507,43,mosquito,0.250243751332,left,1,correct,path,2,path2,bolt
508,43,canoe,3.25021235808,right,1,correct,path,3,path3,bolt
509,43,domino,2.26710711955,right,1,correct,decision,1,decision1,bolt
510,43,ambulance,0.66735621402,right,1,correct,arm1,1,arm11,bolt
511,43,trunk,0.533594220178,left,1,correct,arm1,2,arm12,bolt
512,43,peach,0.533642517636,left,1,correct,arm1,3,arm13,bolt
513,43,garlic,3.86691749142,left,1,correct,decision,2,decision2,bolt
514,43,mug,0.400224945508,right,1,correct,arm2,1,arm21,bolt
515,43,branch,0.200463837013,right,1,correct,arm2,2,arm22,bolt
516,43,bolt,0.200228990521,right,1,correct,arm2,3,arm23,bolt
517,44,bolt,4.80016855826,space,1,correct,target,NaN,targetNaN,bolt
518,44,coffeepot,0.716927543515,left,1,correct,path,1,path1,bolt
519,44,mosquito,0.350248520728,left,1,correct,path,2,path2,bolt
520,44,canoe,0.433697516564,right,1,correct,path,3,path3,bolt
521,44,domino,0.41688999231,right,1,correct,decision,1,decision1,bolt
522,44,ambulance,0.616897719679,right,1,correct,arm1,1,arm11,bolt
523,44,trunk,0.283825595398,left,1,correct,arm1,2,arm12,bolt
524,44,peach,0.250416716561,left,1,correct,arm1,3,arm13,bolt
525,44,garlic,0.616971675307,right,1,correct,decision,2,decision2,bolt
526,44,mug,0.916924102232,right,1,correct,arm2,1,arm21,bolt
527,44,branch,0.150244717253,right,1,correct,arm2,2,arm22,bolt
528,44,bolt,0.4835942504,right,1,correct,arm2,3,arm23,bolt
529,45,lion,0.850303458981,space,1,correct,target,NaN,targetNaN,lion
530,45,coffeepot,1.50024601538,left,1,correct,path,1,path1,lion
531,45,mosquito,0.23337162938,left,1,correct,path,2,path2,lion
532,45,canoe,0.333633582573,right,1,correct,path,3,path3,lion
533,45,goose,0.26702441019,left,1,correct,decision,1,decision1,lion
534,45,sailor,1.25035966537,left,1,correct,arm1,1,arm11,lion
535,45,cooker,0.200343395118,right,1,correct,arm1,2,arm12,lion
536,45,tooth,0.283601917792,left,1,correct,arm1,3,arm13,lion
537,45,crutches,1.66689889715,right,1,correct,decision,2,decision2,lion
538,45,stapler,0.80028809444,right,1,correct,arm2,1,arm21,lion
539,45,rose,0.283604332479,right,1,correct,arm2,2,arm22,lion
540,45,lion,0.21700149891,left,1,correct,arm2,3,arm23,lion
541,46,lion,0.833963515004,space,1,correct,target,NaN,targetNaN,lion
542,46,coffeepot,0.766954076942,left,1,correct,path,1,path1,lion
543,46,mosquito,0.217104734853,left,1,correct,path,2,path2,lion
544,46,canoe,0.633582991082,right,1,correct,path,3,path3,lion
545,46,goose,1.06690831506,left,1,correct,decision,1,decision1,lion
546,46,sailor,0.683706723154,left,1,correct,arm1,1,arm11,lion
547,46,cooker,0.216972218594,right,1,correct,arm1,2,arm12,lion
548,46,tooth,0.216905507725,left,1,correct,arm1,3,arm13,lion
549,46,crutches,1.26691996679,left,1,correct,decision,2,decision2,lion
550,46,stapler,0.566935180686,right,1,correct,arm2,1,arm21,lion
551,46,rose,0.250246769981,right,1,correct,arm2,2,arm22,lion
552,46,lion,0.233708202373,left,1,correct,arm2,3,arm23,lion
553,47,lion,0.600258633029,space,1,correct,target,NaN,targetNaN,lion
554,47,coffeepot,0.783661685884,left,1,correct,path,1,path1,lion
555,47,mosquito,0.316973365843,left,1,correct,path,2,path2,lion
556,47,canoe,0.35032579652,right,1,correct,path,3,path3,lion
557,47,goose,0.617863669526,left,1,correct,decision,1,decision1,lion
558,47,sailor,0.716894339072,left,1,correct,arm1,1,arm11,lion
559,47,cooker,0.250347289257,right,1,correct,arm1,2,arm12,lion
560,47,tooth,0.400249999948,left,1,correct,arm1,3,arm13,lion
561,47,crutches,0.433677895693,right,1,correct,decision,2,decision2,lion
562,47,stapler,0.650303881615,right,1,correct,arm2,1,arm21,lion
563,47,rose,0.183784300927,right,1,correct,arm2,2,arm22,lion
564,47,lion,0.283558449941,left,1,correct,arm2,3,arm23,lion
565,48,lion,1.45024151774,space,1,correct,target,NaN,targetNaN,lion
566,48,coffeepot,0.33357532369,left,1,correct,path,1,path1,lion
567,48,mosquito,0.216913054464,left,1,correct,path,2,path2,lion
568,48,canoe,0.3335822667,right,1,correct,path,3,path3,lion
569,48,goose,1.48360994714,left,1,correct,decision,1,decision1,lion
570,48,sailor,1.51694124797,left,1,correct,arm1,1,arm11,lion
571,48,cooker,0.16674676002,right,1,correct,arm1,2,arm12,lion
572,48,tooth,0.21700783819,left,1,correct,arm1,3,arm13,lion
573,48,crutches,0.850402469048,left,1,correct,decision,2,decision2,lion
574,48,stapler,0.533578221686,right,1,correct,arm2,1,arm21,lion
575,48,rose,0.0835658153519,right,1,correct,arm2,2,arm22,lion
576,48,lion,0.366919000866,left,1,correct,arm2,3,arm23,lion
577,49,bolt,0.633570312988,space,1,correct,target,NaN,targetNaN,bolt
578,49,coffeepot,0.466916223755,left,1,correct,path,1,path1,bolt
579,49,mosquito,0.15042734216,left,1,correct,path,2,path2,bolt
580,49,canoe,0.283604936209,right,1,correct,path,3,path3,bolt
581,49,domino,0.950329056708,left,1,correct,decision,1,decision1,bolt
582,49,ambulance,0.900321842404,right,1,correct,arm1,1,arm11,bolt
583,49,trunk,0.333577436861,left,1,correct,arm1,2,arm12,bolt
584,49,peach,0.166951420484,left,1,correct,arm1,3,arm13,bolt
585,49,garlic,0.550304545788,right,1,correct,decision,2,decision2,bolt
586,49,mug,0.633586311713,right,1,correct,arm2,1,arm21,bolt
587,49,branch,0.466959691606,right,1,correct,arm2,2,arm22,bolt
588,49,bolt,0.183609524509,right,1,correct,arm2,3,arm23,bolt
589,50,lion,0.56692189863,space,1,correct,target,NaN,targetNaN,lion
590,50,coffeepot,0.616955978563,left,1,correct,path,1,path1,lion
591,50,mosquito,0.133666002424,left,1,correct,path,2,path2,lion
592,50,canoe,1.11693545245,right,1,correct,path,3,path3,lion
593,50,goose,4.50025869324,right,1,correct,decision,1,decision1,lion
594,50,sailor,0.600249577314,left,1,correct,arm1,1,arm11,lion
595,50,cooker,0.450258119963,right,1,correct,arm1,2,arm12,lion
596,50,tooth,0.200226575602,left,1,correct,arm1,3,arm13,lion
597,50,crutches,0.383679737104,left,1,correct,decision,2,decision2,lion
598,50,stapler,0.433611788321,right,1,correct,arm2,1,arm21,lion
599,50,rose,0.283633914543,right,1,correct,arm2,2,arm22,lion
600,50,lion,0.266926909564,left,1,correct,arm2,3,arm23,lion
