pic_index,trial_num,pic_name,rt,resp,feedback_code,feedback,segment,segment_index,pic_type,trial_target
1,1,beaver,2.65025326008,space,-1,miss,target,NaN,targetNaN,beaver
2,1,trophy,2.11689145134,right,-1,miss,path,1,path1,beaver
3,1,astronaut,1.90022699831,right,-1,miss,path,2,path2,beaver
4,1,robot,0.916944276745,right,-1,miss,path,3,path3,beaver
5,1,pigeon,3.60020466071,right,-1,miss,decision,1,decision1,beaver
6,1,bus,2.6502315262,right,-1,miss,arm1,1,arm11,beaver
7,1,deer,0.650267749336,left,-1,miss,arm1,2,arm12,beaver
8,1,fist,0.966969632939,left,-1,miss,arm1,3,arm13,beaver
9,1,holly,2.10031363197,right,-1,miss,decision,2,decision2,beaver
10,1,match,4.51691469452,right,-1,miss,arm2,1,arm21,beaver
11,1,baby,1.33357552524,left,-1,miss,arm2,2,arm22,beaver
12,1,arc,0.733597560976,left,-1,miss,arm2,3,arm23,beaver
13,2,beaver,0.666956954842,space,0,wrong,target,NaN,targetNaN,beaver
14,2,trophy,1.13359001449,right,0,wrong,path,1,path1,beaver
15,2,astronaut,0.516931598648,right,0,wrong,path,2,path2,beaver
16,2,robot,0.383559526684,right,0,wrong,path,3,path3,beaver
17,2,watch,1.43369204298,left,0,wrong,decision,1,decision1,beaver
18,2,clover,2.666902922,left,0,wrong,arm1,1,arm11,beaver
19,2,radio,2.4335646583,right,0,wrong,arm1,2,arm12,beaver
20,2,wing,1.11688148998,left,0,wrong,arm1,3,arm13,beaver
21,2,stepladder,2.16690805361,left,0,wrong,decision,2,decision2,beaver
22,2,calc,2.05035347742,right,0,wrong,arm2,1,arm21,beaver
23,2,tongue,0.783593938662,right,0,wrong,arm2,2,arm22,beaver
24,2,beaver,1.86701430814,left,0,wrong,arm2,3,arm23,beaver
25,3,beaver,2.30021794253,space,1,correct,target,NaN,targetNaN,beaver
26,3,trophy,1.70028857764,right,1,correct,path,1,path1,beaver
27,3,astronaut,0.500258693552,right,1,correct,path,2,path2,beaver
28,3,robot,0.316891149481,right,1,correct,path,3,path3,beaver
29,3,pigeon,10.3835012678,left,1,correct,decision,1,decision1,beaver
30,3,bus,1.16691378894,right,1,correct,arm1,1,arm11,beaver
31,3,deer,1.11692103357,left,1,correct,arm1,2,arm12,beaver
32,3,fist,0.933616578121,left,1,correct,arm1,3,arm13,beaver
33,3,stepladder,0.95028193673,right,1,correct,decision,2,decision2,beaver
34,3,calc,1.40082588747,right,1,correct,arm2,1,arm21,beaver
35,3,tongue,0.550299746438,right,1,correct,arm2,2,arm22,beaver
36,3,beaver,1.28339139097,left,1,correct,arm2,3,arm23,beaver
37,4,beaver,2.73357039362,space,1,correct,target,NaN,targetNaN,beaver
38,4,trophy,0.600321480319,right,1,correct,path,1,path1,beaver
39,4,astronaut,0.333549867182,right,1,correct,path,2,path2,beaver
40,4,robot,0.483596655397,right,1,correct,path,3,path3,beaver
41,4,pigeon,1.46698955566,right,1,correct,decision,1,decision1,beaver
42,4,bus,2.41683198503,right,1,correct,arm1,1,arm11,beaver
43,4,deer,0.916901714562,left,1,correct,arm1,2,arm12,beaver
44,4,fist,1.93358880705,left,1,correct,arm1,3,arm13,beaver
45,4,stepladder,1.10022518715,left,1,correct,decision,2,decision2,beaver
46,4,calc,0.733713173146,right,1,correct,arm2,1,arm21,beaver
47,4,tongue,1.15025205264,right,1,correct,arm2,2,arm22,beaver
48,4,beaver,0.316921939145,left,1,correct,arm2,3,arm23,beaver
49,5,arc,0.950236959671,space,1,correct,target,NaN,targetNaN,arc
50,5,trophy,0.58389911857,right,1,correct,path,1,path1,arc
51,5,astronaut,0.266997705868,right,1,correct,path,2,path2,arc
52,5,robot,0.250312122675,right,1,correct,path,3,path3,arc
53,5,watch,4.00065986477,left,1,correct,decision,1,decision1,arc
54,5,clover,1.71691077035,left,1,correct,arm1,1,arm11,arc
55,5,radio,0.566927674475,right,1,correct,arm1,2,arm12,arc
56,5,wing,0.80024329872,left,1,correct,arm1,3,arm13,arc
57,5,holly,1.88363529341,left,1,correct,decision,2,decision2,arc
58,5,match,0.916966614344,right,1,correct,arm2,1,arm21,arc
59,5,baby,0.733598466554,left,1,correct,arm2,2,arm22,arc
60,5,arc,2.08355892297,left,1,correct,arm2,3,arm23,arc
61,6,arc,1.26695272881,space,1,correct,target,NaN,targetNaN,arc
62,6,trophy,0.650292501811,right,1,correct,path,1,path1,arc
63,6,astronaut,0.216902318281,right,1,correct,path,2,path2,arc
64,6,robot,0.234173810674,right,1,correct,path,3,path3,arc
65,6,watch,1.25026473074,left,1,correct,decision,1,decision1,arc
66,6,clover,0.933644349191,left,1,correct,arm1,1,arm11,arc
67,6,radio,0.916917713113,right,1,correct,arm1,2,arm12,arc
68,6,wing,0.783570695484,left,1,correct,arm1,3,arm13,arc
69,6,holly,1.75023575223,right,1,correct,decision,2,decision2,arc
70,6,match,1.3836078242,right,1,correct,arm2,1,arm21,arc
71,6,baby,0.483590014489,left,1,correct,arm2,2,arm22,arc
72,6,arc,0.483708947114,left,1,correct,arm2,3,arm23,arc
73,7,arc,0.550361023907,space,1,correct,target,NaN,targetNaN,arc
74,7,trophy,0.466995894711,right,1,correct,path,1,path1,arc
75,7,astronaut,0.0835719029219,right,1,correct,path,2,path2,arc
76,7,robot,0.183564960154,right,1,correct,path,3,path3,arc
77,7,watch,1.00077306206,left,1,correct,decision,1,decision1,arc
78,7,clover,1.38368811881,left,1,correct,arm1,1,arm11,arc
79,7,radio,0.400236054093,right,1,correct,arm1,2,arm12,arc
80,7,wing,0.63356737503,left,1,correct,arm1,3,arm13,arc
81,7,holly,3.56686911374,left,1,correct,decision,2,decision2,arc
82,7,match,0.766931296788,right,1,correct,arm2,1,arm21,arc
83,7,baby,0.50026020285,left,1,correct,arm2,2,arm22,arc
84,7,arc,0.283635293407,left,1,correct,arm2,3,arm23,arc
85,8,arc,0.700248430331,space,1,correct,target,NaN,targetNaN,arc
86,8,trophy,1.01691046849,right,1,correct,path,1,path1,arc
87,8,astronaut,0.250287973919,right,1,correct,path,2,path2,arc
88,8,robot,0.250080898334,right,1,correct,path,3,path3,arc
89,8,watch,1.05028767206,right,1,correct,decision,1,decision1,arc
90,8,clover,0.717045097802,left,1,correct,arm1,1,arm11,arc
91,8,radio,0.383580053127,right,1,correct,arm1,2,arm12,arc
92,8,wing,0.4335839773,left,1,correct,arm1,3,arm13,arc
93,8,holly,0.983652197537,right,1,correct,decision,2,decision2,arc
94,8,match,0.700385474523,right,1,correct,arm2,1,arm21,arc
95,8,baby,0.21693582468,left,1,correct,arm2,2,arm22,arc
96,8,arc,0.133620804154,left,1,correct,arm2,3,arm23,arc
97,9,arc,0.333586694035,space,1,correct,target,NaN,targetNaN,arc
98,9,trophy,0.217390425018,right,1,correct,path,1,path1,arc
99,9,astronaut,0.100232733639,right,1,correct,path,2,path2,arc
100,9,robot,0.23404280367,right,1,correct,path,3,path3,arc
101,9,watch,2.15022428157,right,1,correct,decision,1,decision1,arc
102,9,clover,1.36691378894,left,1,correct,arm1,1,arm11,arc
103,9,radio,0.533563148998,right,1,correct,arm1,2,arm12,arc
104,9,wing,0.450223979715,left,1,correct,arm1,3,arm13,arc
105,9,holly,1.56699468727,right,1,correct,decision,2,decision2,arc
106,9,match,0.600496256943,right,1,correct,arm2,1,arm21,arc
107,9,baby,0.383622011591,left,1,correct,arm2,2,arm22,arc
108,9,arc,0.100336573292,left,1,correct,arm2,3,arm23,arc
109,10,beaver,0.31696329389,space,1,correct,target,NaN,targetNaN,beaver
110,10,trophy,0.300297029703,right,1,correct,path,1,path1,beaver
111,10,astronaut,0.300257184255,right,1,correct,path,2,path2,beaver
112,10,robot,0.233594844241,right,1,correct,path,3,path3,beaver
113,10,pigeon,1.11694699348,right,1,correct,decision,1,decision1,beaver
114,10,bus,0.650679787491,right,1,correct,arm1,1,arm11,beaver
115,10,deer,1.15024178942,left,1,correct,arm1,2,arm12,beaver
116,10,fist,1.71688903646,left,1,correct,arm1,3,arm13,beaver
117,10,stepladder,1.58393171939,right,1,correct,decision,2,decision2,beaver
118,10,calc,1.5835646583,right,1,correct,arm2,1,arm21,beaver
119,10,tongue,0.733557111809,right,1,correct,arm2,2,arm22,beaver
120,10,beaver,0.266901110843,left,1,correct,arm2,3,arm23,beaver
121,11,beaver,0.633636802705,space,1,correct,target,NaN,targetNaN,beaver
122,11,trophy,0.950104141512,right,1,correct,path,1,path1,beaver
123,11,astronaut,0.333597259116,right,1,correct,path,2,path2,beaver
124,11,robot,0.200072144409,right,1,correct,path,3,path3,beaver
125,11,pigeon,0.466962388312,left,1,correct,decision,1,decision1,beaver
126,11,bus,0.500318159865,right,1,correct,arm1,1,arm11,beaver
127,11,deer,0.583574619657,left,1,correct,arm1,2,arm12,beaver
128,11,fist,0.666931598648,left,1,correct,arm1,3,arm13,beaver
129,11,stepladder,3.50030336875,right,1,correct,decision,2,decision2,beaver
130,11,calc,0.800258089833,right,1,correct,arm2,1,arm21,beaver
131,11,tongue,0.200247826612,right,1,correct,arm2,2,arm22,beaver
132,11,beaver,0.116882999276,left,1,correct,arm2,3,arm23,beaver
133,12,arc,0.266990461241,space,1,correct,target,NaN,targetNaN,arc
134,12,trophy,0.216918618691,right,1,correct,path,1,path1,arc
135,12,astronaut,0.166934315383,right,1,correct,path,2,path2,arc
136,12,robot,0.2003208766,right,1,correct,path,3,path3,arc
137,12,watch,0.26694699348,left,1,correct,decision,1,decision1,arc
138,12,clover,0.800058862593,left,1,correct,arm1,1,arm11,arc
139,12,radio,0.267046003381,right,1,correct,arm1,2,arm12,arc
140,12,wing,0.500234544796,left,1,correct,arm1,3,arm13,arc
141,12,holly,0.816964501328,left,1,correct,decision,2,decision2,arc
142,12,match,0.583588505192,right,1,correct,arm2,1,arm21,arc
143,12,baby,0.400235450374,left,1,correct,arm2,2,arm22,arc
144,12,arc,0.266931900507,left,1,correct,arm2,3,arm23,arc
145,13,arc,0.550257184255,space,1,correct,target,NaN,targetNaN,arc
146,13,trophy,2.45027227723,right,1,correct,path,1,path1,arc
147,13,astronaut,1.33359635354,right,1,correct,path,2,path2,arc
148,13,robot,0.166914996378,right,1,correct,path,3,path3,arc
149,13,watch,0.583657932867,left,1,correct,decision,1,decision1,arc
150,13,clover,0.633590316349,left,1,correct,arm1,1,arm11,arc
151,13,radio,0.550245109877,right,1,correct,arm1,2,arm12,arc
152,13,wing,0.400257787974,left,1,correct,arm1,3,arm13,arc
153,13,holly,1.11715316349,right,1,correct,decision,2,decision2,arc
154,13,match,1.10040479353,right,1,correct,arm2,1,arm21,arc
155,13,baby,0.350295218546,left,1,correct,arm2,2,arm22,arc
156,13,arc,0.0668914513401,left,1,correct,arm2,3,arm23,arc
157,14,beaver,0.600306085487,space,1,correct,target,NaN,targetNaN,beaver
158,14,trophy,0.716907148032,right,1,correct,path,1,path1,beaver
159,14,astronaut,0.383593033084,right,1,correct,path,2,path2,beaver
160,14,robot,0.216954238107,right,1,correct,path,3,path3,beaver
161,14,pigeon,1.38369325042,right,1,correct,decision,1,decision1,beaver
162,14,bus,2.11690835547,right,1,correct,arm1,1,arm11,beaver
163,14,deer,0.600980439507,left,1,correct,arm1,2,arm12,beaver
164,14,fist,0.450672844724,left,1,correct,arm1,3,arm13,beaver
165,14,stepladder,1.3670257788,right,1,correct,decision,2,decision2,beaver
166,14,calc,0.616959671577,right,1,correct,arm2,1,arm21,beaver
167,14,tongue,0.900252958223,right,1,correct,arm2,2,arm22,beaver
168,14,beaver,0.516923750302,left,1,correct,arm2,3,arm23,beaver
169,15,beaver,0.700450676165,space,1,correct,target,NaN,targetNaN,beaver
170,15,trophy,0.350251147066,right,1,correct,path,1,path1,beaver
171,15,astronaut,0.0835773363922,right,1,correct,path,2,path2,beaver
172,15,robot,0.200266240039,right,1,correct,path,3,path3,beaver
173,15,pigeon,0.533642236175,right,1,correct,decision,1,decision1,beaver
174,15,bus,0.333606616759,right,1,correct,arm1,1,arm11,beaver
175,15,deer,0.350378229896,left,1,correct,arm1,2,arm12,beaver
176,15,fist,0.28361718184,left,1,correct,arm1,3,arm13,beaver
177,15,stepladder,0.850264127022,left,1,correct,decision,2,decision2,beaver
178,15,calc,3.83352873702,right,1,correct,arm2,1,arm21,beaver
179,15,tongue,0.183577336392,right,1,correct,arm2,2,arm22,beaver
180,15,beaver,0.18361144651,left,1,correct,arm2,3,arm23,beaver
181,16,beaver,0.433596353538,space,1,correct,target,NaN,targetNaN,beaver
182,16,trophy,0.116889942043,right,1,correct,path,1,path1,beaver
183,16,astronaut,0.0667215044675,right,1,correct,path,2,path2,beaver
184,16,robot,0.200241487563,right,1,correct,path,3,path3,beaver
185,16,pigeon,0.400547271191,right,1,correct,decision,1,decision1,beaver
186,16,bus,0.266978386863,right,1,correct,arm1,1,arm11,beaver
187,16,deer,0.266931296788,left,1,correct,arm1,2,arm12,beaver
188,16,fist,0.217021854625,left,1,correct,arm1,3,arm13,beaver
189,16,stepladder,1.33339954117,left,1,correct,decision,2,decision2,beaver
190,16,calc,0.417063813089,right,1,correct,arm2,1,arm21,beaver
191,16,tongue,0.800228809466,right,1,correct,arm2,2,arm22,beaver
192,16,beaver,0.766911374064,left,1,correct,arm2,3,arm23,beaver
193,17,beaver,0.916931296788,space,1,correct,target,NaN,targetNaN,beaver
194,17,trophy,0.333713776866,right,1,correct,path,1,path1,beaver
195,17,astronaut,0.183602692586,right,1,correct,path,2,path2,beaver
196,17,robot,0.250237261531,right,1,correct,path,3,path3,beaver
197,17,pigeon,1.00026925863,right,1,correct,decision,1,decision1,beaver
198,17,bus,0.733563752717,right,1,correct,arm1,1,arm11,beaver
199,17,deer,0.150248128472,left,1,correct,arm1,2,arm12,beaver
200,17,fist,0.183580656846,left,1,correct,arm1,3,arm13,beaver
201,17,stepladder,0.883451461,right,1,correct,decision,2,decision2,beaver
202,17,calc,0.950244506158,right,1,correct,arm2,1,arm21,beaver
203,17,tongue,0.433583071722,right,1,correct,arm2,2,arm22,beaver
204,17,beaver,0.133670610964,left,1,correct,arm2,3,arm23,beaver
205,18,arc,0.883591221927,space,1,correct,target,NaN,targetNaN,arc
206,18,trophy,0.216913185221,right,1,correct,path,1,path1,arc
207,18,astronaut,0.150279521855,right,1,correct,path,2,path2,arc
208,18,robot,0.216909864767,right,1,correct,path,3,path3,arc
209,18,watch,0.750355892297,left,1,correct,decision,1,decision1,arc
210,18,clover,0.833615370683,left,1,correct,arm1,1,arm11,arc
211,18,radio,0.616964501328,right,1,correct,arm1,2,arm12,arc
212,18,wing,0.316967218063,left,1,correct,arm1,3,arm13,arc
213,18,holly,0.633651895677,left,1,correct,decision,2,decision2,arc
214,18,match,0.683459913065,right,1,correct,arm2,1,arm21,arc
215,18,baby,1.23358941077,left,1,correct,arm2,2,arm22,arc
216,18,arc,0.300291294373,left,1,correct,arm2,3,arm23,arc
217,19,arc,0.616938843275,space,1,correct,target,NaN,targetNaN,arc
218,19,trophy,0.266937032118,right,1,correct,path,1,path1,arc
219,19,astronaut,0.166897488529,right,1,correct,path,2,path2,arc
220,19,robot,0.183576128954,right,1,correct,path,3,path3,arc
221,19,watch,0.30030397247,left,1,correct,decision,1,decision1,arc
222,19,clover,0.716921033567,left,1,correct,arm1,1,arm11,arc
223,19,radio,0.633607522338,right,1,correct,arm1,2,arm12,arc
224,19,wing,0.350245109877,left,1,correct,arm1,3,arm13,arc
225,19,holly,0.800265938179,right,1,correct,decision,2,decision2,arc
226,19,match,0.400982250664,right,1,correct,arm2,1,arm21,arc
227,19,baby,0.35028767206,left,1,correct,arm2,2,arm22,arc
228,19,arc,0.0502583916928,left,1,correct,arm2,3,arm23,arc
229,20,arc,1.0002091886,space,1,correct,target,NaN,targetNaN,arc
230,20,trophy,0.566966614344,right,1,correct,path,1,path1,arc
231,20,astronaut,0.517038456894,right,1,correct,path,2,path2,arc
232,20,robot,0.433593938662,right,1,correct,path,3,path3,arc
233,20,watch,1.16696269017,right,1,correct,decision,1,decision1,arc
234,20,clover,1.80023273364,left,1,correct,arm1,1,arm11,arc
235,20,radio,0.317094300893,right,1,correct,arm1,2,arm12,arc
236,20,wing,0.25023816711,left,1,correct,arm1,3,arm13,arc
237,20,holly,0.833596655397,right,1,correct,decision,2,decision2,arc
238,20,match,0.483559526685,right,1,correct,arm2,1,arm21,arc
239,20,baby,0.350258089833,left,1,correct,arm2,2,arm22,arc
240,20,arc,0.0335776382515,left,1,correct,arm2,3,arm23,arc
