pic_index,trial_num,pic_name,rt,resp,feedback_code,feedback,segment,segment_index,pic_type,trial_target
1,1,arc,1.80035951454,space,0,wrong,target,NaN,targetNaN,arc
2,1,trophy,1.2836561217,right,0,wrong,path,1,path1,arc
3,1,astronaut,0.800264127087,right,0,wrong,path,2,path2,arc
4,1,robot,0.966869415715,right,0,wrong,path,3,path3,arc
5,1,pigeon,0.916926467093,left,0,wrong,decision,1,decision1,arc
6,1,bus,2.33362110611,right,0,wrong,arm1,1,arm11,arc
7,1,deer,2.10023363936,left,0,wrong,arm1,2,arm12,arc
8,1,fist,0.883579751244,left,0,wrong,arm1,3,arm13,arc
9,1,holly,2.88359997584,right,0,wrong,decision,2,decision2,arc
10,1,match,1.98357220483,right,0,wrong,arm2,1,arm21,arc
11,1,baby,1.08358518477,right,0,wrong,arm2,2,arm22,arc
12,1,arc,1.08358941064,left,0,wrong,arm2,3,arm23,arc
13,2,beaver,1.38361446513,space,1,correct,target,NaN,targetNaN,beaver
14,2,trophy,0.633586090291,right,1,correct,path,1,path1,beaver
15,2,astronaut,0.550253561931,right,1,correct,path,2,path2,beaver
16,2,robot,0.51695967163,right,1,correct,path,3,path3,beaver
17,2,pigeon,2.58358759969,right,1,correct,decision,1,decision1,beaver
18,2,bus,2.20025326009,right,1,correct,arm1,1,arm11,beaver
19,2,deer,0.516940654488,left,1,correct,arm1,2,arm12,beaver
20,2,fist,0.43358156248,left,1,correct,arm1,3,arm13,beaver
21,2,stepladder,2.05029974645,left,1,correct,decision,2,decision2,beaver
22,2,calc,2.40147760208,right,1,correct,arm2,1,arm21,beaver
23,2,tongue,2.35031453753,right,1,correct,arm2,2,arm22,beaver
24,2,beaver,3.75002143206,left,1,correct,arm2,3,arm23,beaver
25,3,beaver,4.23364917887,space,1,correct,target,NaN,targetNaN,beaver
26,3,trophy,0.966960275313,right,1,correct,path,1,path1,beaver
27,3,astronaut,0.500250543235,right,1,correct,path,2,path2,beaver
28,3,robot,0.383605107432,right,1,correct,path,3,path3,beaver
29,3,pigeon,0.833687816979,right,1,correct,decision,1,decision1,beaver
30,3,bus,0.933786223177,right,1,correct,arm1,1,arm11,beaver
31,3,deer,0.45064899791,left,1,correct,arm1,2,arm12,beaver
32,3,fist,0.200271069771,left,1,correct,arm1,3,arm13,beaver
33,3,stepladder,0.850342308637,left,1,correct,decision,2,decision2,beaver
34,3,calc,0.633387466893,right,1,correct,arm2,1,arm21,beaver
35,3,tongue,2.50130312727,right,1,correct,arm2,2,arm22,beaver
36,3,beaver,0.883599673864,left,1,correct,arm2,3,arm23,beaver
37,4,arc,1.30028887955,space,-1,miss,target,NaN,targetNaN,arc
38,4,trophy,1.13358216616,right,-1,miss,path,1,path1,arc
39,4,astronaut,0.166937937494,right,-1,miss,path,2,path2,arc
40,4,robot,0.200238770805,right,-1,miss,path,3,path3,arc
41,4,pigeon,0.483788336162,left,-1,miss,decision,1,decision1,arc
42,4,bus,0.466947898967,right,-1,miss,arm1,1,arm11,arc
43,4,deer,0.500289784977,left,-1,miss,arm1,2,arm12,arc
44,4,fist,0.366984424181,left,-1,miss,arm1,3,arm13,arc
45,4,stepladder,0.616945182206,left,-1,miss,decision,2,decision2,arc
46,4,calc,1.26707498194,right,-1,miss,arm2,1,arm21,arc
47,4,tongue,0.650237563532,right,-1,miss,arm2,2,arm22,arc
48,4,beaver,0.800286766607,left,-1,miss,arm2,3,arm23,arc
49,5,arc,2.98359152372,space,-1,miss,target,NaN,targetNaN,arc
50,5,trophy,0.500259901164,right,-1,miss,path,1,path1,arc
51,5,astronaut,1.10031121713,right,-1,miss,path,2,path2,arc
52,5,robot,0.166911072098,right,-1,miss,path,3,path3,arc
53,5,pigeon,0.700338384369,right,-1,miss,decision,1,decision1,arc
54,5,bus,0.650272880914,right,-1,miss,arm1,1,arm11,arc
55,5,deer,0.717699830886,left,-1,miss,arm1,2,arm12,arc
56,5,fist,0.167017628672,left,-1,miss,arm1,3,arm13,arc
57,5,stepladder,2.05031997105,right,-1,miss,decision,2,decision2,arc
58,5,calc,0.583640726749,right,-1,miss,arm2,1,arm21,arc
59,5,tongue,0.983594844118,right,-1,miss,arm2,2,arm22,arc
60,5,beaver,0.451242453419,left,-1,miss,arm2,3,arm23,arc
61,6,beaver,1.48365551815,space,1,correct,target,NaN,targetNaN,beaver
62,6,trophy,0.466985329753,right,1,correct,path,1,path1,beaver
63,6,astronaut,0.216771613108,right,1,correct,path,2,path2,beaver
64,6,robot,0.183637104463,right,1,correct,path,3,path3,beaver
65,6,pigeon,0.500329328701,left,1,correct,decision,1,decision1,beaver
66,6,bus,3.50032691378,right,1,correct,arm1,1,arm11,beaver
67,6,deer,0.666926768841,left,1,correct,arm1,2,arm12,beaver
68,6,fist,0.483582769986,left,1,correct,arm1,3,arm13,beaver
69,6,stepladder,1.18359846668,left,1,correct,decision,2,decision2,beaver
70,6,calc,1.63356948807,right,1,correct,arm2,1,arm21,beaver
71,6,tongue,0.716975670075,right,1,correct,arm2,2,arm22,beaver
72,6,beaver,2.28355680988,left,1,correct,arm2,3,arm23,beaver
73,7,beaver,2.65039181337,space,1,correct,target,NaN,targetNaN,beaver
74,7,trophy,1.70028525707,right,1,correct,path,1,path1,beaver
75,7,astronaut,0.183581260731,right,1,correct,path,2,path2,beaver
76,7,robot,0.250246317359,right,1,correct,path,3,path3,beaver
77,7,pigeon,0.550278314389,right,1,correct,decision,1,decision1,beaver
78,7,bus,1.65023695957,right,1,correct,arm1,1,arm11,beaver
79,7,deer,0.283664573915,left,1,correct,arm1,2,arm12,beaver
80,7,fist,0.250233035535,left,1,correct,arm1,3,arm13,beaver
81,7,stepladder,0.666959671536,left,1,correct,decision,2,decision2,beaver
82,7,calc,0.434325947892,right,1,correct,arm2,1,arm21,beaver
83,7,tongue,0.450261410326,right,1,correct,arm2,2,arm22,beaver
84,7,beaver,0.366912279744,left,1,correct,arm2,3,arm23,beaver
85,8,beaver,2.23368419451,space,1,correct,target,NaN,targetNaN,beaver
86,8,trophy,0.550227602012,right,1,correct,path,1,path1,beaver
87,8,astronaut,0.166952427011,right,1,correct,path,2,path2,beaver
88,8,robot,0.266907148063,right,1,correct,path,3,path3,beaver
89,8,pigeon,0.450501388405,right,1,correct,decision,1,decision1,beaver
90,8,bus,0.666906845989,right,1,correct,arm1,1,arm11,beaver
91,8,deer,0.450307896594,left,1,correct,arm1,2,arm12,beaver
92,8,fist,0.23416596232,left,1,correct,arm1,3,arm13,beaver
93,8,stepladder,0.883630765369,right,1,correct,decision,2,decision2,beaver
94,8,calc,0.550236355979,right,1,correct,arm2,1,arm21,beaver
95,8,tongue,2.50030668918,right,1,correct,arm2,2,arm22,beaver
96,8,beaver,0.316928881919,left,1,correct,arm2,3,arm23,beaver
97,9,arc,2.63366185687,space,-1,miss,target,NaN,targetNaN,arc
98,9,trophy,0.500265032751,right,-1,miss,path,1,path1,arc
99,9,astronaut,0.266890545608,right,-1,miss,path,2,path2,arc
100,9,robot,0.217184556881,right,-1,miss,path,3,path3,arc
101,9,pigeon,0.366902016336,left,-1,miss,decision,1,decision1,arc
102,9,bus,0.416942465585,right,-1,miss,arm1,1,arm11,arc
103,9,deer,0.28360722051,left,-1,miss,arm1,2,arm12,arc
104,9,fist,0.55049867183,left,-1,miss,arm1,3,arm13,arc
105,9,stepladder,0.683591523906,left,-1,miss,decision,2,decision2,arc
106,9,calc,0.401161555201,right,-1,miss,arm2,1,arm21,arc
107,9,tongue,0.350921878824,right,-1,miss,arm2,2,arm22,arc
108,9,beaver,0.25037158886,left,-1,miss,arm2,3,arm23,arc
109,10,beaver,0.400288879406,space,1,correct,target,NaN,targetNaN,beaver
110,10,trophy,0.383558017435,right,1,correct,path,1,path1,beaver
111,10,astronaut,0.950274994131,right,1,correct,path,2,path2,beaver
112,10,robot,0.650087237591,right,1,correct,path,3,path3,beaver
113,10,pigeon,0.383665781235,left,1,correct,decision,1,decision1,beaver
114,10,bus,1.03381127748,right,1,correct,arm1,1,arm11,beaver
115,10,deer,0.266981405439,left,1,correct,arm1,2,arm12,beaver
116,10,fist,0.25000060373,left,1,correct,arm1,3,arm13,beaver
117,10,stepladder,0.43384236889,left,1,correct,decision,2,decision2,beaver
118,10,calc,0.433613861445,right,1,correct,arm2,1,arm21,beaver
119,10,tongue,0.800121649401,right,1,correct,arm2,2,arm22,beaver
120,10,beaver,0.433503984474,left,1,correct,arm2,3,arm23,beaver
121,11,beaver,0.801266602241,space,1,correct,target,NaN,targetNaN,beaver
122,11,trophy,0.36691529816,right,1,correct,path,1,path1,beaver
123,11,astronaut,0.283864404773,right,1,correct,path,2,path2,beaver
124,11,robot,0.166965406854,right,1,correct,path,3,path3,beaver
125,11,pigeon,0.317142296582,left,1,correct,decision,1,decision1,beaver
126,11,bus,0.401904733153,right,1,correct,arm1,1,arm11,beaver
127,11,deer,0.417237080401,left,1,correct,arm1,2,arm12,beaver
128,11,fist,0.167091584066,left,1,correct,arm1,3,arm13,beaver
129,11,stepladder,0.583568280796,right,1,correct,decision,2,decision2,beaver
130,11,calc,0.417077698512,right,1,correct,arm2,1,arm21,beaver
131,11,tongue,0.433444820112,right,1,correct,arm2,2,arm22,beaver
132,11,beaver,0.333551980322,left,1,correct,arm2,3,arm23,beaver
133,12,arc,0.650504105259,space,-1,miss,target,NaN,targetNaN,arc
134,12,trophy,0.283572506625,right,-1,miss,path,1,path1,arc
135,12,astronaut,0.20002807281,right,-1,miss,path,2,path2,arc
136,12,robot,0.150316952262,right,-1,miss,path,3,path3,arc
137,12,pigeon,0.500343817752,left,-1,miss,decision,1,decision1,arc
138,12,bus,0.416936428286,right,-1,miss,arm1,1,arm11,arc
139,12,deer,0.350184436189,left,-1,miss,arm1,2,arm12,arc
140,12,fist,0.200104443356,left,-1,miss,arm1,3,arm13,arc
141,12,stepladder,0.616958162282,right,-1,miss,decision,2,decision2,arc
142,12,calc,0.50026654196,right,-1,miss,arm2,1,arm21,arc
143,12,tongue,0.8172557957,right,-1,miss,arm2,2,arm22,arc
144,12,beaver,0.733664875617,left,-1,miss,arm2,3,arm23,arc
145,13,beaver,0.716924353968,space,1,correct,target,NaN,targetNaN,beaver
146,13,trophy,0.517004346708,right,1,correct,path,1,path1,beaver
147,13,astronaut,0.333592127543,right,1,correct,path,2,path2,beaver
148,13,robot,0.233532661339,right,1,correct,path,3,path3,beaver
149,13,pigeon,0.417147126282,left,1,correct,decision,1,decision1,beaver
150,13,bus,0.367228628369,right,1,correct,arm1,1,arm11,beaver
151,13,deer,0.566951219458,left,1,correct,arm1,2,arm12,beaver
152,13,fist,0.300262919627,left,1,correct,arm1,3,arm13,beaver
153,13,stepladder,0.633618691238,right,1,correct,decision,2,decision2,beaver
154,13,calc,0.416926769074,right,1,correct,arm2,1,arm21,beaver
155,13,tongue,0.61693974887,right,1,correct,arm2,2,arm22,beaver
156,13,beaver,0.216908959206,left,1,correct,arm2,3,arm23,beaver
157,14,arc,0.700249939691,space,-1,miss,target,NaN,targetNaN,arc
158,14,trophy,0.200264730724,right,-1,miss,path,1,path1,arc
159,14,astronaut,0.416954539949,right,-1,miss,path,2,path2,arc
160,14,robot,0.717066529905,right,-1,miss,path,3,path3,arc
161,14,pigeon,0.433652499458,right,-1,miss,decision,1,decision1,arc
162,14,bus,0.400270465994,right,-1,miss,arm1,1,arm11,arc
163,14,deer,0.483625332126,left,-1,miss,arm1,2,arm12,arc
164,14,fist,0.333590316353,left,-1,miss,arm1,3,arm13,arc
165,14,stepladder,0.600270767929,left,-1,miss,decision,2,decision2,arc
166,14,calc,0.350348345935,right,-1,miss,arm2,1,arm21,arc
167,14,tongue,0.26706743543,right,-1,miss,arm2,2,arm22,arc
168,14,beaver,0.333608126035,left,-1,miss,arm2,3,arm23,arc
169,15,arc,0.78358458099,space,-1,miss,target,NaN,targetNaN,arc
170,15,trophy,0.233602692373,right,-1,miss,path,1,path1,arc
171,15,astronaut,0.200448261341,right,-1,miss,path,2,path2,arc
172,15,robot,0.166931900661,right,-1,miss,path,3,path3,arc
173,15,pigeon,0.40041233995,left,-1,miss,decision,1,decision1,arc
174,15,bus,3.10026261769,right,-1,miss,arm1,1,arm11,arc
175,15,deer,0.216941560153,left,-1,miss,arm1,2,arm12,arc
176,15,fist,0.300278012641,left,-1,miss,arm1,3,arm13,arc
177,15,stepladder,0.367096413858,right,-1,miss,decision,2,decision2,arc
178,15,calc,0.433615068905,right,-1,miss,arm2,1,arm21,arc
179,15,tongue,1.31694971025,right,-1,miss,arm2,2,arm22,arc
180,15,beaver,0.400265938137,left,-1,miss,arm2,3,arm23,arc
181,16,beaver,0.266951219412,space,1,correct,target,NaN,targetNaN,beaver
182,16,trophy,0.216937334044,right,1,correct,path,1,path1,beaver
183,16,astronaut,0.350482673151,right,1,correct,path,2,path2,beaver
184,16,robot,0.200211905409,right,1,correct,path,3,path3,beaver
185,16,pigeon,0.316948200809,left,1,correct,decision,1,decision1,beaver
186,16,bus,0.383354262216,right,1,correct,arm1,1,arm11,beaver
187,16,deer,0.383586694021,left,1,correct,arm1,2,arm12,beaver
188,16,fist,0.300664694514,left,1,correct,arm1,3,arm13,beaver
189,16,stepladder,0.467070756014,left,1,correct,decision,2,decision2,beaver
190,16,calc,0.416977481451,right,1,correct,arm2,1,arm21,beaver
191,16,tongue,0.383583675604,right,1,correct,arm2,2,arm22,beaver
192,16,beaver,0.233585486654,left,1,correct,arm2,3,arm23,beaver
193,17,beaver,0.283621408045,space,1,correct,target,NaN,targetNaN,beaver
194,17,trophy,2.86691741133,right,1,correct,path,1,path1,beaver
195,17,astronaut,0.483596957289,right,1,correct,path,2,path2,beaver
196,17,robot,0.366956653073,right,1,correct,path,3,path3,beaver
197,17,pigeon,0.400380644714,right,1,correct,decision,1,decision1,beaver
198,17,bus,0.517229835736,right,1,correct,arm1,1,arm11,beaver
199,17,deer,0.450945121935,left,1,correct,arm1,2,arm12,beaver
200,17,fist,0.250262014102,left,1,correct,arm1,3,arm13,beaver
201,17,stepladder,0.633618992986,left,1,correct,decision,2,decision2,beaver
202,17,calc,0.30027529574,right,1,correct,arm2,1,arm21,beaver
203,17,tongue,0.233585184906,right,1,correct,arm2,2,arm22,beaver
204,17,beaver,0.216908657225,left,1,correct,arm2,3,arm23,beaver
205,18,beaver,0.150281936629,space,1,correct,target,NaN,targetNaN,beaver
206,18,trophy,1.3335797512,right,1,correct,path,1,path1,beaver
207,18,astronaut,0.216915901983,right,1,correct,path,2,path2,beaver
208,18,robot,0.284085667692,right,1,correct,path,3,path3,beaver
209,18,pigeon,0.317045097938,left,1,correct,decision,1,decision1,beaver
210,18,bus,0.284140002448,right,1,correct,arm1,1,arm11,beaver
211,18,deer,0.383612653939,left,1,correct,arm1,2,arm12,beaver
212,18,fist,0.167915660422,left,1,correct,arm1,3,arm13,beaver
213,18,stepladder,0.717205385212,right,1,correct,decision,2,decision2,beaver
214,18,calc,1.53359001456,right,1,correct,arm2,1,arm21,beaver
215,18,tongue,0.550287068356,right,1,correct,arm2,2,arm22,beaver
216,18,beaver,0.300236053998,left,1,correct,arm2,3,arm23,beaver
217,19,arc,1.75030246307,space,-1,miss,target,NaN,targetNaN,arc
218,19,trophy,0.41695846431,right,-1,miss,path,1,path1,arc
219,19,astronaut,0.350229413249,right,-1,miss,path,2,path2,arc
220,19,robot,0.23363650078,right,-1,miss,path,3,path3,arc
221,19,pigeon,0.266976877581,right,-1,miss,decision,1,decision1,arc
222,19,bus,0.416942163836,right,-1,miss,arm1,1,arm11,arc
223,19,deer,0.316955747548,left,-1,miss,arm1,2,arm12,arc
224,19,fist,0.250267447438,left,-1,miss,arm1,3,arm13,arc
225,19,stepladder,0.41697416082,left,-1,miss,decision,2,decision2,arc
226,19,calc,0.300266843755,right,-1,miss,arm2,1,arm21,arc
227,19,tongue,0.216975368327,right,-1,miss,arm2,2,arm22,arc
228,19,beaver,0.283619898371,left,-1,miss,arm2,3,arm23,arc
229,20,beaver,0.233686609427,space,1,correct,target,NaN,targetNaN,beaver
230,20,trophy,0.250243902439,right,1,correct,path,1,path1,beaver
231,20,astronaut,0.550242695026,right,1,correct,path,2,path2,beaver
232,20,robot,0.200246619061,right,1,correct,path,3,path3,beaver
233,20,pigeon,0.300280427327,left,1,correct,decision,1,decision1,beaver
234,20,bus,0.316911373986,right,1,correct,arm1,1,arm11,beaver
235,20,deer,0.333610842703,left,1,correct,arm1,2,arm12,beaver
236,20,fist,0.21692344849,left,1,correct,arm1,3,arm13,beaver
237,20,stepladder,1.35023514857,left,1,correct,decision,2,decision2,beaver
238,20,calc,0.333552885801,right,1,correct,arm2,1,arm21,beaver
239,20,tongue,0.233837841079,right,1,correct,arm2,2,arm22,beaver
240,20,beaver,0.266947295284,left,1,correct,arm2,3,arm23,beaver
241,21,arc,0.766953332582,space,-1,miss,target,NaN,targetNaN,arc
242,21,trophy,0.300320574548,right,-1,miss,path,1,path1,arc
243,21,astronaut,0.150270164246,right,-1,miss,path,2,path2,arc
244,21,robot,0.200233337469,right,-1,miss,path,3,path3,arc
245,21,pigeon,0.217017024988,left,-1,miss,decision,1,decision1,arc
246,21,bus,0.283615672495,right,-1,miss,arm1,1,arm11,arc
247,21,deer,0.400595870567,left,-1,miss,arm1,2,arm12,arc
248,21,fist,0.333548659692,left,-1,miss,arm1,3,arm13,arc
249,21,stepladder,0.484871407971,right,-1,miss,decision,2,decision2,arc
250,21,calc,0.483912400436,right,-1,miss,arm2,1,arm21,arc
251,21,tongue,0.383606013143,right,-1,miss,arm2,2,arm22,arc
252,21,beaver,0.366960275453,left,-1,miss,arm2,3,arm23,arc
253,22,arc,0.417020949069,space,-1,miss,target,NaN,targetNaN,arc
254,22,trophy,0.233621407766,right,-1,miss,path,1,path1,arc
255,22,astronaut,0.183602994308,right,-1,miss,path,2,path2,arc
256,22,robot,0.150312122656,right,-1,miss,path,3,path3,arc
257,22,pigeon,0.317368087359,right,-1,miss,decision,1,decision1,arc
258,22,bus,2.1170339291,right,-1,miss,arm1,1,arm11,arc
259,22,deer,0.267096413765,left,-1,miss,arm1,2,arm12,arc
260,22,fist,0.184471142245,left,-1,miss,arm1,3,arm13,arc
261,22,stepladder,0.433674233267,right,-1,miss,decision,2,decision2,arc
262,22,calc,0.383793467889,right,-1,miss,arm2,1,arm21,arc
263,22,tongue,0.217020345386,right,-1,miss,arm2,2,arm22,arc
264,22,beaver,0.300440412946,left,-1,miss,arm2,3,arm23,arc
265,23,arc,0.516951219644,space,-1,miss,target,NaN,targetNaN,arc
266,23,trophy,0.500271975296,right,-1,miss,path,1,path1,arc
267,23,astronaut,0.416886319872,right,-1,miss,path,2,path2,arc
268,23,robot,0.250508633209,right,-1,miss,path,3,path3,arc
269,23,pigeon,0.200251147151,left,-1,miss,decision,1,decision1,arc
270,23,bus,0.283766904147,right,-1,miss,arm1,1,arm11,arc
271,23,deer,0.367025778862,left,-1,miss,arm1,2,arm12,arc
272,23,fist,0.234244445805,left,-1,miss,arm1,3,arm13,arc
273,23,stepladder,0.633427010383,left,-1,miss,decision,2,decision2,arc
274,23,calc,0.333591221832,right,-1,miss,arm2,1,arm21,arc
275,23,tongue,0.200385776348,right,-1,miss,arm2,2,arm22,arc
276,23,beaver,0.383706532419,left,-1,miss,arm2,3,arm23,arc
277,24,arc,0.183665177552,space,-1,miss,target,NaN,targetNaN,arc
278,24,trophy,0.266980801709,right,-1,miss,path,1,path1,arc
279,24,astronaut,0.21709430078,right,-1,miss,path,2,path2,arc
280,24,robot,0.200329328654,right,-1,miss,path,3,path3,arc
281,24,pigeon,0.333994808141,left,-1,miss,decision,1,decision1,arc
282,24,bus,0.366926165298,right,-1,miss,arm1,1,arm11,arc
283,24,deer,0.383622615365,left,-1,miss,arm1,2,arm12,arc
284,24,fist,1.13360269275,left,-1,miss,arm1,3,arm13,arc
285,24,stepladder,2.83360540937,right,-1,miss,decision,2,decision2,arc
286,24,calc,0.400294614956,right,-1,miss,arm2,1,arm21,arc
287,24,tongue,0.183766904054,right,-1,miss,arm2,2,arm22,arc
288,24,beaver,0.250305481721,left,-1,miss,arm2,3,arm23,arc
289,25,arc,0.300317556132,space,-1,miss,target,NaN,targetNaN,arc
290,25,trophy,0.416943371063,right,-1,miss,path,1,path1,arc
291,25,astronaut,0.184356435668,right,-1,miss,path,2,path2,arc
292,25,robot,0.167720357422,right,-1,miss,path,3,path3,arc
293,25,pigeon,0.450390304439,right,-1,miss,decision,1,decision1,arc
294,25,bus,0.483721625293,right,-1,miss,arm1,1,arm11,arc
295,25,deer,0.416950615821,left,-1,miss,arm1,2,arm12,arc
296,25,fist,1.05040298239,left,-1,miss,arm1,3,arm13,arc
297,25,stepladder,0.60029159626,left,-1,miss,decision,2,decision2,arc
298,25,calc,0.316983518656,right,-1,miss,arm2,1,arm21,arc
299,25,tongue,0.166942465585,right,-1,miss,arm2,2,arm22,arc
300,25,beaver,0.533576732734,left,-1,miss,arm2,3,arm23,arc
301,26,arc,0.366974462755,space,-1,miss,target,NaN,targetNaN,arc
302,26,trophy,0.300976817263,right,-1,miss,path,1,path1,arc
303,26,astronaut,0.216924353968,right,-1,miss,path,2,path2,arc
304,26,robot,0.183422784321,right,-1,miss,path,3,path3,arc
305,26,pigeon,0.300317858113,left,-1,miss,decision,1,decision1,arc
306,26,bus,0.266929787584,right,-1,miss,arm1,1,arm11,arc
307,26,deer,0.450262014056,left,-1,miss,arm1,2,arm12,arc
308,26,fist,0.233594542369,left,-1,miss,arm1,3,arm13,arc
309,26,stepladder,0.383650386473,right,-1,miss,decision,2,decision2,arc
310,26,calc,0.366958162282,right,-1,miss,arm2,1,arm21,arc
311,26,tongue,0.183608126128,right,-1,miss,arm2,2,arm22,arc
312,26,beaver,0.283595749876,left,-1,miss,arm2,3,arm23,arc
313,27,arc,0.66703724931,space,-1,miss,target,NaN,targetNaN,arc
314,27,trophy,0.483650688082,right,-1,miss,path,1,path1,arc
315,27,astronaut,0.250339591876,right,-1,miss,path,2,path2,arc
316,27,robot,0.251200495055,right,-1,miss,path,3,path3,arc
317,27,watch,0.400391511852,left,-1,miss,decision,1,decision1,arc
318,27,clover,1.53358759964,left,-1,miss,arm1,1,arm11,arc
319,27,radio,2.73360661673,right,-1,miss,arm1,2,arm12,arc
320,27,wing,2.16692525963,left,-1,miss,arm1,3,arm13,arc
321,27,stepladder,1.26695242687,right,-1,miss,decision,2,decision2,arc
322,27,calc,0.483598466497,right,-1,miss,arm2,1,arm21,arc
323,27,tongue,4.11687545292,right,-1,miss,arm2,2,arm22,arc
324,27,beaver,1.08367876126,left,-1,miss,arm2,3,arm23,arc
325,28,beaver,0.650294916704,space,-1,miss,target,NaN,targetNaN,beaver
326,28,trophy,0.2836090317,right,-1,miss,path,1,path1,beaver
327,28,astronaut,0.283652801299,right,-1,miss,path,2,path2,beaver
328,28,robot,0.250304576242,right,-1,miss,path,3,path3,beaver
329,28,watch,0.483662762446,left,-1,miss,decision,1,decision1,beaver
330,28,clover,1.16702215653,left,-1,miss,arm1,1,arm11,beaver
331,28,radio,0.933753018733,right,-1,miss,arm1,2,arm12,beaver
332,28,wing,0.80038728565,left,-1,miss,arm1,3,arm13,beaver
333,28,holly,1.86697567021,left,-1,miss,decision,2,decision2,beaver
334,28,match,1.00047965464,right,-1,miss,arm2,1,arm21,beaver
335,28,baby,1.25031604688,right,-1,miss,arm2,2,arm22,beaver
336,28,arc,1.63399722287,left,-1,miss,arm2,3,arm23,beaver
337,29,arc,0.883619596716,space,-1,miss,target,NaN,targetNaN,arc
338,29,trophy,1.0838915722,right,-1,miss,path,1,path1,arc
339,29,astronaut,0.233554998878,right,-1,miss,path,2,path2,arc
340,29,robot,0.200654129498,right,-1,miss,path,3,path3,arc
341,29,pigeon,0.317042683018,left,-1,miss,decision,1,decision1,arc
342,29,bus,0.550793286646,right,-1,miss,arm1,1,arm11,arc
343,29,deer,0.517149843043,left,-1,miss,arm1,2,arm12,arc
344,29,fist,0.300354684936,left,-1,miss,arm1,3,arm13,arc
345,29,stepladder,0.63343395316,right,-1,miss,decision,2,decision2,arc
346,29,calc,0.433650688268,right,-1,miss,arm2,1,arm21,arc
347,29,tongue,2.9002571844,right,-1,miss,arm2,2,arm22,arc
348,29,beaver,0.28362593567,left,-1,miss,arm2,3,arm23,arc
349,30,beaver,1.75030397228,space,1,correct,target,NaN,targetNaN,beaver
350,30,trophy,0.550268956693,right,1,correct,path,1,path1,beaver
351,30,astronaut,0.400291898288,right,1,correct,path,2,path2,beaver
352,30,robot,0.350254467456,right,1,correct,path,3,path3,beaver
353,30,pigeon,0.250284351641,left,1,correct,decision,1,decision1,beaver
354,30,bus,0.450512859272,right,1,correct,arm1,1,arm11,beaver
355,30,deer,0.40043618693,left,1,correct,arm1,2,arm12,beaver
356,30,fist,1.16700887471,left,1,correct,arm1,3,arm13,beaver
357,30,stepladder,0.383697476238,right,1,correct,decision,2,decision2,beaver
358,30,calc,1.450388795,right,1,correct,arm2,1,arm21,beaver
359,30,tongue,0.200589833548,right,1,correct,arm2,2,arm22,beaver
360,30,beaver,0.40037309844,left,1,correct,arm2,3,arm23,beaver
361,31,arc,0.316972047789,space,-1,miss,target,NaN,targetNaN,arc
362,31,trophy,0.366798176663,right,-1,miss,path,1,path1,arc
363,31,astronaut,0.200464561582,right,-1,miss,path,2,path2,arc
364,31,robot,0.833599975798,right,-1,miss,path,3,path3,arc
365,31,pigeon,0.467167350929,left,-1,miss,decision,1,decision1,arc
366,31,bus,0.200287068263,right,-1,miss,arm1,1,arm11,arc
367,31,deer,0.401234303368,left,-1,miss,arm1,2,arm12,arc
368,31,fist,0.183523001615,left,-1,miss,arm1,3,arm13,arc
369,31,stepladder,0.317027891753,left,-1,miss,decision,2,decision2,arc
370,31,calc,0.283657329157,right,-1,miss,arm2,1,arm21,arc
371,31,tongue,0.183613861213,right,-1,miss,arm2,2,arm22,arc
372,31,beaver,0.266775537282,left,-1,miss,arm2,3,arm23,arc
373,32,beaver,0.116952125216,space,1,correct,target,NaN,targetNaN,beaver
374,32,trophy,0.351075223414,right,1,correct,path,1,path1,beaver
375,32,astronaut,0.150270767976,right,1,correct,path,2,path2,beaver
376,32,robot,0.217535015661,right,1,correct,path,3,path3,beaver
377,32,pigeon,0.217222591164,left,1,correct,decision,1,decision1,beaver
378,32,bus,0.200289181434,right,1,correct,arm1,1,arm11,beaver
379,32,deer,0.366956954822,left,1,correct,arm1,2,arm12,beaver
380,32,fist,0.150243600598,left,1,correct,arm1,3,arm13,beaver
381,32,stepladder,0.433613861445,left,1,correct,decision,2,decision2,beaver
382,32,calc,0.233446631348,right,1,correct,arm2,1,arm21,beaver
383,32,tongue,0.166978084948,right,1,correct,arm2,2,arm22,beaver
384,32,beaver,0.50028918148,left,1,correct,arm2,3,arm23,beaver
385,33,arc,0.283582468051,space,-1,miss,target,NaN,targetNaN,arc
386,33,trophy,0.250281332992,right,-1,miss,path,1,path1,arc
387,33,astronaut,0.200419886503,right,-1,miss,path,2,path2,arc
388,33,robot,0.434117966564,right,-1,miss,path,3,path3,arc
389,33,pigeon,0.217354503926,left,-1,miss,decision,1,decision1,arc
390,33,bus,0.250249336008,right,-1,miss,arm1,1,arm11,arc
391,33,deer,1.25062635844,left,-1,miss,arm1,2,arm12,arc
392,33,fist,0.216913185082,left,-1,miss,arm1,3,arm13,arc
393,33,stepladder,0.533554093214,right,-1,miss,decision,2,decision2,arc
394,33,calc,0.516856737435,right,-1,miss,arm2,1,arm21,arc
395,33,tongue,0.683631671127,right,-1,miss,arm2,2,arm22,arc
396,33,beaver,0.367186971707,left,-1,miss,arm2,3,arm23,arc
397,34,arc,0.416991366772,space,-1,miss,target,NaN,targetNaN,arc
398,34,trophy,0.300246921135,right,-1,miss,path,1,path1,arc
399,34,astronaut,0.183609635336,right,-1,miss,path,2,path2,arc
400,34,robot,0.783568884246,right,-1,miss,path,3,path3,arc
401,34,pigeon,0.267302282155,left,-1,miss,decision,1,decision1,arc
402,34,bus,0.283647065982,right,-1,miss,arm1,1,arm11,arc
403,34,deer,0.366965105059,left,-1,miss,arm1,2,arm12,arc
404,34,fist,0.250497162575,left,-1,miss,arm1,3,arm13,arc
405,34,stepladder,0.467007365311,right,-1,miss,decision,2,decision2,arc
406,34,calc,0.433550772723,right,-1,miss,arm2,1,arm21,arc
407,34,tongue,1.0336899301,right,-1,miss,arm2,2,arm22,arc
408,34,beaver,0.28358095861,left,-1,miss,arm2,3,arm23,arc
409,35,arc,0.416943673044,space,-1,miss,target,NaN,targetNaN,arc
410,35,trophy,0.466978688724,right,-1,miss,path,1,path1,arc
411,35,astronaut,0.234175621765,right,-1,miss,path,2,path2,arc
412,35,robot,0.333646160318,right,-1,miss,path,3,path3,arc
413,35,pigeon,0.217326430604,right,-1,miss,decision,1,decision1,arc
414,35,bus,0.333998128539,right,-1,miss,arm1,1,arm11,arc
415,35,deer,0.350270164199,left,-1,miss,arm1,2,arm12,arc
416,35,fist,0.317538638134,left,-1,miss,arm1,3,arm13,arc
417,35,stepladder,0.716962388251,left,-1,miss,decision,2,decision2,arc
418,35,calc,0.400273484876,right,-1,miss,arm2,1,arm21,arc
419,35,tongue,0.250279220054,right,-1,miss,arm2,2,arm22,arc
420,35,beaver,0.266963294009,left,-1,miss,arm2,3,arm23,arc
421,36,beaver,0.28369536344,space,1,correct,target,NaN,targetNaN,beaver
422,36,trophy,0.216776442947,right,1,correct,path,1,path1,beaver
423,36,astronaut,0.15030276496,right,1,correct,path,2,path2,beaver
424,36,robot,0.966927674599,right,1,correct,path,3,path3,beaver
425,36,pigeon,0.333742453484,left,1,correct,decision,1,decision1,beaver
426,36,bus,0.233550470788,right,1,correct,arm1,1,arm11,beaver
427,36,deer,0.283639821457,left,1,correct,arm1,2,arm12,beaver
428,36,fist,0.216997705866,left,1,correct,arm1,3,arm13,beaver
429,36,stepladder,0.466955143493,left,1,correct,decision,2,decision2,beaver
430,36,calc,0.233587599592,right,1,correct,arm2,1,arm21,beaver
431,36,tongue,0.800434073899,right,1,correct,arm2,2,arm22,beaver
432,36,beaver,0.217087659985,left,1,correct,arm2,3,arm23,beaver
433,37,arc,0.234054274159,space,-1,miss,target,NaN,targetNaN,arc
434,37,trophy,0.200499577448,right,-1,miss,path,1,path1,arc
435,37,astronaut,0.166981405579,right,-1,miss,path,2,path2,arc
436,37,robot,1.0174963777,right,-1,miss,path,3,path3,arc
437,37,pigeon,0.300381852081,left,-1,miss,decision,1,decision1,arc
438,37,bus,0.184248973848,right,-1,miss,arm1,1,arm11,arc
439,37,deer,0.550278616138,left,-1,miss,arm1,2,arm12,arc
440,37,fist,0.716931296745,left,-1,miss,arm1,3,arm13,arc
441,37,stepladder,0.417173991678,left,-1,miss,decision,2,decision2,arc
442,37,calc,0.233652801253,right,-1,miss,arm2,1,arm21,arc
443,37,tongue,0.26695725671,right,-1,miss,arm2,2,arm22,arc
444,37,beaver,0.300293407403,left,-1,miss,arm2,3,arm23,arc
445,38,beaver,0.350597077981,space,1,correct,target,NaN,targetNaN,beaver
446,38,trophy,0.200284351595,right,1,correct,path,1,path1,beaver
447,38,astronaut,0.167866155505,right,1,correct,path,2,path2,beaver
448,38,robot,0.283577638213,right,1,correct,path,3,path3,beaver
449,38,pigeon,0.433641934302,right,1,correct,decision,1,decision1,beaver
450,38,bus,1.31692193914,right,1,correct,arm1,1,arm11,beaver
451,38,deer,2.71691710944,left,1,correct,arm1,2,arm12,beaver
452,38,fist,0.216959369835,left,1,correct,arm1,3,arm13,beaver
453,38,stepladder,0.433573713992,left,1,correct,decision,2,decision2,beaver
454,38,calc,0.366944880458,right,1,correct,arm2,1,arm21,beaver
455,38,tongue,0.650240279967,right,1,correct,arm2,2,arm22,beaver
456,38,beaver,0.883558922913,left,1,correct,arm2,3,arm23,beaver
457,39,arc,0.366953634424,space,-1,miss,target,NaN,targetNaN,arc
458,39,trophy,0.250280125532,right,-1,miss,path,1,path1,arc
459,39,astronaut,0.200266843662,right,-1,miss,path,2,path2,arc
460,39,robot,0.917141692713,right,-1,miss,path,3,path3,arc
461,39,watch,0.433653404936,right,-1,miss,decision,1,decision1,arc
462,39,clover,2.75031272625,left,-1,miss,arm1,1,arm11,arc
463,39,radio,0.45025024144,right,-1,miss,arm1,2,arm12,arc
464,39,wing,0.50033234735,left,-1,miss,arm1,3,arm13,arc
465,39,stepladder,0.733648575377,right,-1,miss,decision,2,decision2,arc
466,39,calc,1.05069729523,right,-1,miss,arm2,1,arm21,arc
467,39,tongue,1.13358518458,right,-1,miss,arm2,2,arm22,arc
468,39,beaver,0.33357582707,left,-1,miss,arm2,3,arm23,arc
469,40,beaver,0.166907148203,space,1,correct,target,NaN,targetNaN,beaver
470,40,trophy,0.23370170244,right,1,correct,path,1,path1,beaver
471,40,astronaut,0.183587901527,right,1,correct,path,2,path2,beaver
472,40,robot,0.800274993991,right,1,correct,path,3,path3,beaver
473,40,pigeon,0.350319367368,left,1,correct,decision,1,decision1,beaver
474,40,bus,0.383600277593,right,1,correct,arm1,1,arm11,beaver
475,40,deer,0.266765274107,left,1,correct,arm1,2,arm12,beaver
476,40,fist,0.200246921042,left,1,correct,arm1,3,arm13,beaver
477,40,stepladder,0.383646462345,right,1,correct,decision,2,decision2,beaver
478,40,calc,0.383664875757,right,1,correct,arm2,1,arm21,beaver
479,40,tongue,0.200242091203,right,1,correct,arm2,2,arm22,beaver
480,40,beaver,0.200244506123,left,1,correct,arm2,3,arm23,beaver
481,41,beaver,0.233673629584,space,1,correct,target,NaN,targetNaN,beaver
482,41,trophy,0.350307293003,right,1,correct,path,1,path1,beaver
483,41,astronaut,0.216951823095,right,1,correct,path,2,path2,beaver
484,41,robot,0.200254769297,right,1,correct,path,3,path3,beaver
485,41,pigeon,0.251175138867,left,1,correct,decision,1,decision1,beaver
486,41,bus,0.333622011589,right,1,correct,arm1,1,arm11,beaver
487,41,deer,0.250255071325,left,1,correct,arm1,2,arm12,beaver
488,41,fist,0.283594542183,left,1,correct,arm1,3,arm13,beaver
489,41,stepladder,0.351225851104,right,1,correct,decision,2,decision2,beaver
490,41,calc,0.366918015061,right,1,correct,arm2,1,arm21,beaver
491,41,tongue,0.200427131029,right,1,correct,arm2,2,arm22,beaver
492,41,beaver,0.216906242538,left,1,correct,arm2,3,arm23,beaver
493,42,arc,0.433583977167,space,-1,miss,target,NaN,targetNaN,arc
494,42,trophy,1.28368268535,right,-1,miss,path,1,path1,arc
495,42,astronaut,0.183574619703,right,-1,miss,path,2,path2,arc
496,42,robot,0.167001328198,right,-1,miss,path,3,path3,arc
497,42,pigeon,0.300418377155,right,-1,miss,decision,1,decision1,arc
498,42,bus,2.18357492145,right,-1,miss,arm1,1,arm11,arc
499,42,deer,0.450219451683,left,-1,miss,arm1,2,arm12,arc
500,42,fist,0.366888432764,left,-1,miss,arm1,3,arm13,arc
501,42,stepladder,0.500231828075,left,-1,miss,decision,2,decision2,arc
502,42,calc,0.250212810934,right,-1,miss,arm2,1,arm21,arc
503,42,tongue,0.200271069771,right,-1,miss,arm2,2,arm22,arc
504,42,beaver,0.333582166117,left,-1,miss,arm2,3,arm23,arc
505,43,beaver,1.38359756116,space,1,correct,target,NaN,targetNaN,beaver
506,43,trophy,0.417546486249,right,1,correct,path,1,path1,beaver
507,43,astronaut,0.183673629537,right,1,correct,path,2,path2,beaver
508,43,robot,0.216908657225,right,1,correct,path,3,path3,beaver
509,43,pigeon,0.250437092502,right,1,correct,decision,1,decision1,beaver
510,43,bus,1.53376237606,right,1,correct,arm1,1,arm11,beaver
511,43,deer,2.28358095861,left,1,correct,arm1,2,arm12,beaver
512,43,fist,0.216923448257,left,1,correct,arm1,3,arm13,beaver
513,43,stepladder,0.434581320966,right,1,correct,decision,2,decision2,beaver
514,43,calc,0.950559647288,right,1,correct,arm2,1,arm21,beaver
515,43,tongue,0.583638915792,right,1,correct,arm2,2,arm22,beaver
516,43,beaver,0.516955445521,left,1,correct,arm2,3,arm23,beaver
517,44,arc,0.31712358119,space,-1,miss,target,NaN,targetNaN,arc
518,44,trophy,3.08358488278,right,-1,miss,path,1,path1,arc
519,44,astronaut,0.733641330618,right,-1,miss,path,2,path2,arc
520,44,robot,0.700260504847,right,-1,miss,path,3,path3,arc
521,44,pigeon,0.417115129065,left,-1,miss,decision,1,decision1,arc
522,44,bus,0.367113620043,right,-1,miss,arm1,1,arm11,arc
523,44,deer,0.300403887872,left,-1,miss,arm1,2,arm12,arc
524,44,fist,0.284794735722,left,-1,miss,arm1,3,arm13,arc
525,44,stepladder,0.300402982393,right,-1,miss,decision,2,decision2,arc
526,44,calc,1.80030729296,right,-1,miss,arm2,1,arm21,arc
527,44,tongue,0.133584882831,right,-1,miss,arm2,2,arm22,arc
528,44,beaver,0.416880584322,left,-1,miss,arm2,3,arm23,arc
529,45,beaver,0.517426949926,space,0,wrong,target,NaN,targetNaN,beaver
530,45,trophy,0.434117966564,right,0,wrong,path,1,path1,beaver
531,45,astronaut,0.100389096886,right,0,wrong,path,2,path2,beaver
532,45,robot,0.150262617739,right,0,wrong,path,3,path3,beaver
533,45,watch,0.351329389028,right,0,wrong,decision,1,decision1,beaver
534,45,clover,0.50019952911,left,0,wrong,arm1,1,arm11,beaver
535,45,radio,1.06775929732,right,0,wrong,arm1,2,arm12,beaver
536,45,wing,1.23363287863,left,0,wrong,arm1,3,arm13,beaver
537,45,stepladder,0.451718184166,right,0,wrong,decision,2,decision2,beaver
538,45,calc,0.450169946766,right,0,wrong,arm2,1,arm21,beaver
539,45,tongue,0.16688964027,right,0,wrong,arm2,2,arm22,beaver
540,45,beaver,0.433408597019,left,0,wrong,arm2,3,arm23,beaver
541,46,beaver,0.28364978265,space,1,correct,target,NaN,targetNaN,beaver
542,46,trophy,0.250349553302,right,1,correct,path,1,path1,beaver
543,46,astronaut,0.166966614313,right,1,correct,path,2,path2,beaver
544,46,robot,0.183629859937,right,1,correct,path,3,path3,beaver
545,46,pigeon,0.366992574185,right,1,correct,decision,1,decision1,beaver
546,46,bus,0.501262979815,right,1,correct,arm1,1,arm11,beaver
547,46,deer,0.283567073289,left,1,correct,arm1,2,arm12,beaver
548,46,fist,0.266907450045,left,1,correct,arm1,3,arm13,beaver
549,46,stepladder,0.56701793056,left,1,correct,decision,2,decision2,beaver
550,46,calc,0.317293528235,right,1,correct,arm2,1,arm21,beaver
551,46,tongue,0.250037128804,right,1,correct,arm2,2,arm22,beaver
552,46,beaver,0.883640425047,left,1,correct,arm2,3,arm23,beaver
553,47,beaver,0.266908657271,space,1,correct,target,NaN,targetNaN,beaver
554,47,trophy,0.233584279194,right,1,correct,path,1,path1,beaver
555,47,astronaut,0.166941258125,right,1,correct,path,2,path2,beaver
556,47,robot,0.200236959849,right,1,correct,path,3,path3,beaver
557,47,pigeon,0.300346534699,right,1,correct,decision,1,decision1,beaver
558,47,bus,0.55030155764,right,1,correct,arm1,1,arm11,beaver
559,47,deer,0.350344723556,left,1,correct,arm1,2,arm12,beaver
560,47,fist,0.217024269514,left,1,correct,arm1,3,arm13,beaver
561,47,stepladder,0.350432262756,right,1,correct,decision,2,decision2,beaver
562,47,calc,0.566982612945,right,1,correct,arm2,1,arm21,beaver
563,47,tongue,0.350259901024,right,1,correct,arm2,2,arm22,beaver
564,47,beaver,0.50028404966,left,1,correct,arm2,3,arm23,beaver
565,48,arc,0.233603598084,space,-1,miss,target,NaN,targetNaN,arc
566,48,trophy,0.183867121581,right,-1,miss,path,1,path1,arc
567,48,astronaut,0.200313631911,right,-1,miss,path,2,path2,arc
568,48,robot,0.233645556495,right,-1,miss,path,3,path3,arc
569,48,pigeon,0.350318763638,left,-1,miss,decision,1,decision1,arc
570,48,bus,0.30005433457,right,-1,miss,arm1,1,arm11,arc
571,48,deer,0.383582166163,left,-1,miss,arm1,2,arm12,arc
572,48,fist,0.250828906195,left,-1,miss,arm1,3,arm13,arc
573,48,stepladder,0.466931296745,left,-1,miss,decision,2,decision2,arc
574,48,calc,0.350971987471,right,-1,miss,arm2,1,arm21,arc
575,48,tongue,0.434430693043,right,-1,miss,arm2,2,arm22,arc
576,48,beaver,0.350430451566,left,-1,miss,arm2,3,arm23,arc
577,49,beaver,0.417172784219,space,1,correct,target,NaN,targetNaN,beaver
578,49,trophy,0.200462750392,right,1,correct,path,1,path1,beaver
579,49,astronaut,0.150258089881,right,1,correct,path,2,path2,beaver
580,49,robot,0.25026352331,right,1,correct,path,3,path3,beaver
581,49,pigeon,0.267007667106,right,1,correct,decision,1,decision1,beaver
582,49,bus,2.55069397483,right,1,correct,arm1,1,arm11,beaver
583,49,deer,0.417082528351,left,1,correct,arm1,2,arm12,beaver
584,49,fist,0.233670309186,left,1,correct,arm1,3,arm13,beaver
585,49,stepladder,0.217502414947,right,1,correct,decision,2,decision2,beaver
586,49,calc,0.483656423632,right,1,correct,arm2,1,arm21,beaver
587,49,tongue,1.43368117604,right,1,correct,arm2,2,arm22,beaver
588,49,beaver,0.150274088373,left,1,correct,arm2,3,arm23,beaver
589,50,beaver,0.283679666696,space,1,correct,target,NaN,targetNaN,beaver
590,50,trophy,0.200897126226,right,1,correct,path,1,path1,beaver
591,50,astronaut,0.183609635336,right,1,correct,path,2,path2,beaver
592,50,robot,0.416881791782,right,1,correct,path,3,path3,beaver
593,50,pigeon,0.267490944127,right,1,correct,decision,1,decision1,beaver
594,50,bus,0.483612050302,right,1,correct,arm1,1,arm11,beaver
595,50,deer,0.417185764294,left,1,correct,arm1,2,arm12,beaver
596,50,fist,0.233605711022,left,1,correct,arm1,3,arm13,beaver
597,50,stepladder,0.466963293962,left,1,correct,decision,2,decision2,beaver
598,50,calc,0.333593033021,right,1,correct,arm2,1,arm21,beaver
599,50,tongue,0.35027348483,right,1,correct,arm2,2,arm22,beaver
600,50,beaver,0.983519983245,left,1,correct,arm2,3,arm23,beaver
