pic_index,trial_num,pic_name,rt,resp,feedback_code,feedback,segment,segment_index,pic_type,trial_target
1,1,beaver,2.90030185925,space,1,correct,target,NaN,targetNaN,beaver
2,1,trophy,4.51695816219,right,1,correct,path,1,path1,beaver
3,1,astronaut,1.05029461486,right,1,correct,path,2,path2,beaver
4,1,robot,1.23367815744,right,1,correct,path,3,path3,beaver
5,1,pigeon,6.65023726178,right,1,correct,decision,1,decision1,beaver
6,1,bus,6.99995532492,right,1,correct,arm1,1,arm11,beaver
7,1,deer,2.65024178941,left,1,correct,arm1,2,arm12,beaver
8,1,fist,0.933544433676,left,1,correct,arm1,3,arm13,beaver
9,1,stepladder,4.30029612407,left,1,correct,decision,2,decision2,beaver
10,1,calc,2.26697657583,right,1,correct,arm2,1,arm21,beaver
11,1,tongue,0.900275597814,right,1,correct,arm2,2,arm22,beaver
12,1,beaver,1.05028465344,left,1,correct,arm2,3,arm23,beaver
13,2,arc,4.48359273095,space,-1,miss,target,NaN,targetNaN,arc
14,2,trophy,3.1336111445,right,-1,miss,path,1,path1,arc
15,2,astronaut,1.3669545399,right,-1,miss,path,2,path2,arc
16,2,robot,1.73367181839,right,-1,miss,path,3,path3,arc
17,2,watch,2.20033536572,left,-1,miss,decision,1,decision1,arc
18,2,clover,5.36686428403,left,-1,miss,arm1,1,arm11,arc
19,2,radio,1.03340859665,right,-1,miss,arm1,2,arm12,arc
20,2,wing,0.816910770256,left,-1,miss,arm1,3,arm13,arc
21,2,stepladder,2.46690895921,left,-1,miss,decision,2,decision2,arc
22,2,calc,1.63358337386,right,-1,miss,arm2,1,arm21,arc
23,2,tongue,0.616978688631,right,-1,miss,arm2,2,arm22,arc
24,2,beaver,1.4836180876,left,-1,miss,arm2,3,arm23,arc
25,3,beaver,3.20025537303,space,1,correct,target,NaN,targetNaN,beaver
26,3,trophy,2.3169358247,right,1,correct,path,1,path1,beaver
27,3,astronaut,0.566717882175,right,1,correct,path,2,path2,beaver
28,3,robot,1.73359695729,right,1,correct,path,3,path3,beaver
29,3,pigeon,1.25024631759,right,1,correct,decision,1,decision1,beaver
30,3,bus,2.78335184744,right,1,correct,arm1,1,arm11,beaver
31,3,deer,0.666705808137,left,1,correct,arm1,2,arm12,beaver
32,3,fist,0.400288275443,left,1,correct,arm1,3,arm13,beaver
33,3,stepladder,1.11703574006,left,1,correct,decision,2,decision2,beaver
34,3,calc,1.10025507119,right,1,correct,arm2,1,arm21,beaver
35,3,tongue,0.433596655261,right,1,correct,arm2,2,arm22,beaver
36,3,beaver,0.516946993303,left,1,correct,arm2,3,arm23,beaver
37,4,beaver,1.31695816247,space,1,correct,target,NaN,targetNaN,beaver
38,4,trophy,1.51695725648,right,1,correct,path,1,path1,beaver
39,4,astronaut,0.450155457482,right,1,correct,path,2,path2,beaver
40,4,robot,0.667095810175,right,1,correct,path,3,path3,beaver
41,4,pigeon,2.2502559768,left,1,correct,decision,1,decision1,beaver
42,4,bus,2.90019288845,right,1,correct,arm1,1,arm11,beaver
43,4,deer,1.16703151446,left,1,correct,arm1,2,arm12,beaver
44,4,fist,0.500295822509,left,1,correct,arm1,3,arm13,beaver
45,4,stepladder,0.833572506439,left,1,correct,decision,2,decision2,beaver
46,4,calc,1.16692827828,right,1,correct,arm2,1,arm21,beaver
47,4,tongue,0.400063088629,right,1,correct,arm2,2,arm22,beaver
48,4,beaver,0.483451159205,left,1,correct,arm2,3,arm23,beaver
49,5,beaver,0.63379376987,space,1,correct,target,NaN,targetNaN,beaver
50,5,trophy,1.08371226722,right,1,correct,path,1,path1,beaver
51,5,astronaut,0.433920852374,right,1,correct,path,2,path2,beaver
52,5,robot,0.350367061328,right,1,correct,path,3,path3,beaver
53,5,pigeon,0.617073472589,left,1,correct,decision,1,decision1,beaver
54,5,bus,2.16687152861,right,1,correct,arm1,1,arm11,beaver
55,5,deer,0.533629860263,left,1,correct,arm1,2,arm12,beaver
56,5,fist,0.283574015833,left,1,correct,arm1,3,arm13,beaver
57,5,stepladder,0.617280849721,left,1,correct,decision,2,decision2,beaver
58,5,calc,0.783621106297,right,1,correct,arm2,1,arm21,beaver
59,5,tongue,0.250288276002,right,1,correct,arm2,2,arm22,beaver
60,5,beaver,0.366996498313,left,1,correct,arm2,3,arm23,beaver
61,6,arc,0.967202366795,space,-1,miss,target,NaN,targetNaN,arc
62,6,trophy,1.28359424043,right,-1,miss,path,1,path1,arc
63,6,astronaut,0.283686911687,right,-1,miss,path,2,path2,arc
64,6,robot,0.31701793056,right,-1,miss,path,3,path3,arc
65,6,pigeon,0.966947295237,right,-1,miss,decision,1,decision1,arc
66,6,bus,2.0675742575,right,-1,miss,arm1,1,arm11,arc
67,6,deer,0.450284653809,left,-1,miss,arm1,2,arm12,arc
68,6,fist,0.250261711888,left,-1,miss,arm1,3,arm13,arc
69,6,stepladder,0.583640425,left,-1,miss,decision,2,decision2,arc
70,6,calc,0.633655820042,right,-1,miss,arm2,1,arm21,arc
71,6,tongue,0.366902921814,right,-1,miss,arm2,2,arm22,arc
72,6,beaver,0.300215527881,left,-1,miss,arm2,3,arm23,arc
73,7,beaver,1.11698925355,space,1,correct,target,NaN,targetNaN,beaver
74,7,trophy,1.56695363484,right,1,correct,path,1,path1,beaver
75,7,astronaut,0.416898695752,right,1,correct,path,2,path2,beaver
76,7,robot,0.233695967123,right,1,correct,path,3,path3,beaver
77,7,pigeon,0.850282540545,right,1,correct,decision,1,decision1,beaver
78,7,bus,1.1170284953,right,1,correct,arm1,1,arm11,beaver
79,7,deer,0.416943974793,left,1,correct,arm1,2,arm12,beaver
80,7,fist,0.250513462815,left,1,correct,arm1,3,arm13,beaver
81,7,stepladder,0.750254467595,right,1,correct,decision,2,decision2,beaver
82,7,calc,1.28359484393,right,1,correct,arm2,1,arm21,beaver
83,7,tongue,0.250282540452,right,1,correct,arm2,2,arm22,beaver
84,7,beaver,1.35037430562,left,1,correct,arm2,3,arm23,beaver
85,8,beaver,0.767008572817,space,1,correct,target,NaN,targetNaN,beaver
86,8,trophy,0.900281936862,right,1,correct,path,1,path1,beaver
87,8,astronaut,1.50026563648,right,1,correct,path,2,path2,beaver
88,8,robot,0.566930693109,right,1,correct,path,3,path3,beaver
89,8,pigeon,2.0671048658,left,1,correct,decision,1,decision1,beaver
90,8,bus,0.850313330069,right,1,correct,arm1,1,arm11,beaver
91,8,deer,0.583570091985,left,1,correct,arm1,2,arm12,beaver
92,8,fist,0.26695665298,left,1,correct,arm1,3,arm13,beaver
93,8,stepladder,0.566927674692,left,1,correct,decision,2,decision2,beaver
94,8,calc,0.633602390531,right,1,correct,arm2,1,arm21,beaver
95,8,tongue,0.416995291132,right,1,correct,arm2,2,arm22,beaver
96,8,beaver,0.33361657802,left,1,correct,arm2,3,arm23,beaver
97,9,arc,0.316990763415,space,1,correct,target,NaN,targetNaN,arc
98,9,trophy,1.01694125822,right,1,correct,path,1,path1,arc
99,9,astronaut,0.383398937527,right,1,correct,path,2,path2,arc
100,9,robot,1.26693069283,right,1,correct,path,3,path3,arc
101,9,watch,1.33360752231,left,1,correct,decision,1,decision1,arc
102,9,clover,3.23356254539,left,1,correct,arm1,1,arm11,arc
103,9,radio,0.766921637114,right,1,correct,arm1,2,arm12,arc
104,9,wing,0.583653707057,left,1,correct,arm1,3,arm13,arc
105,9,holly,1.05026171217,right,1,correct,decision,2,decision2,arc
106,9,match,4.01706109615,right,1,correct,arm2,1,arm21,arc
107,9,baby,21.0166321541,right,1,correct,arm2,2,arm22,arc
108,9,arc,3.30050923675,left,1,correct,arm2,3,arm23,arc
109,10,arc,0.600326309912,space,1,correct,target,NaN,targetNaN,arc
110,10,trophy,0.600306991488,right,1,correct,path,1,path1,arc
111,10,astronaut,0.400303066708,right,1,correct,path,2,path2,arc
112,10,robot,0.41695846431,right,1,correct,path,3,path3,arc
113,10,watch,0.966913486831,right,1,correct,decision,1,decision1,arc
114,10,clover,0.716915600002,left,1,correct,arm1,1,arm11,arc
115,10,radio,0.783664573915,right,1,correct,arm1,2,arm12,arc
116,10,wing,0.450255373027,left,1,correct,arm1,3,arm13,arc
117,10,holly,1.13361023925,left,1,correct,decision,2,decision2,arc
118,10,match,1.46700163046,right,1,correct,arm2,1,arm21,arc
119,10,baby,0.700341705233,right,1,correct,arm2,2,arm22,arc
120,10,arc,1.76688994234,left,1,correct,arm2,3,arm23,arc
121,11,beaver,0.68366849795,space,1,correct,target,NaN,targetNaN,beaver
122,11,trophy,0.583558319137,right,1,correct,path,1,path1,beaver
123,11,astronaut,0.266962689813,right,1,correct,path,2,path2,beaver
124,11,robot,0.266998309176,right,1,correct,path,3,path3,beaver
125,11,pigeon,0.816937937867,left,1,correct,decision,1,decision1,beaver
126,11,bus,1.25024661934,right,1,correct,arm1,1,arm11,beaver
127,11,deer,0.483700495213,left,1,correct,arm1,2,arm12,beaver
128,11,fist,0.400293407496,left,1,correct,arm1,3,arm13,beaver
129,11,stepladder,0.750296727754,left,1,correct,decision,2,decision2,beaver
130,11,calc,0.683613257483,right,1,correct,arm2,1,arm21,beaver
131,11,tongue,1.23364133062,right,1,correct,arm2,2,arm22,beaver
132,11,beaver,0.50035347743,left,1,correct,arm2,3,arm23,beaver
133,12,arc,0.883685402106,space,1,correct,target,NaN,targetNaN,arc
134,12,trophy,0.783557414077,right,1,correct,path,1,path1,arc
135,12,astronaut,0.266873943619,right,1,correct,path,2,path2,arc
136,12,robot,0.266941559967,right,1,correct,path,3,path3,arc
137,12,watch,0.767145616934,right,1,correct,decision,1,decision1,arc
138,12,clover,1.88371528639,left,1,correct,arm1,1,arm11,arc
139,12,radio,0.500254165381,right,1,correct,arm1,2,arm12,arc
140,12,wing,0.500326913781,left,1,correct,arm1,3,arm13,arc
141,12,holly,0.816944880411,right,1,correct,decision,2,decision2,arc
142,12,match,1.30024299677,right,1,correct,arm2,1,arm21,arc
143,12,baby,0.333624124527,right,1,correct,arm2,2,arm22,arc
144,12,arc,0.867110903375,left,1,correct,arm2,3,arm23,arc
145,13,beaver,0.81703030644,space,1,correct,target,NaN,targetNaN,beaver
146,13,trophy,0.383569487836,right,1,correct,path,1,path1,beaver
147,13,astronaut,0.283720115665,right,1,correct,path,2,path2,beaver
148,13,robot,0.233620200306,right,1,correct,path,3,path3,beaver
149,13,pigeon,2.28334943252,left,1,correct,decision,1,decision1,beaver
150,13,bus,1.41706622811,right,1,correct,arm1,1,arm11,beaver
151,13,deer,0.533703211695,left,1,correct,arm1,2,arm12,beaver
152,13,fist,0.283662460744,left,1,correct,arm1,3,arm13,beaver
153,13,stepladder,0.583595448174,left,1,correct,decision,2,decision2,beaver
154,13,calc,0.900348949246,right,1,correct,arm2,1,arm21,beaver
155,13,tongue,0.366966312286,right,1,correct,arm2,2,arm22,beaver
156,13,beaver,0.333636500873,left,1,correct,arm2,3,arm23,beaver
157,14,beaver,3.11694669165,space,1,correct,target,NaN,targetNaN,beaver
158,14,trophy,1.10024571372,right,1,correct,path,1,path1,beaver
159,14,astronaut,0.216953936033,right,1,correct,path,2,path2,beaver
160,14,robot,0.250237261411,right,1,correct,path,3,path3,beaver
161,14,pigeon,0.500286766794,right,1,correct,decision,1,decision1,beaver
162,14,bus,1.35036162753,right,1,correct,arm1,1,arm11,beaver
163,14,deer,0.416934617329,left,1,correct,arm1,2,arm12,beaver
164,14,fist,0.200312424451,left,1,correct,arm1,3,arm13,beaver
165,14,stepladder,0.550598587375,left,1,correct,decision,2,decision2,beaver
166,14,calc,0.533406785689,right,1,correct,arm2,1,arm21,beaver
167,14,tongue,0.400293709245,right,1,correct,arm2,2,arm22,beaver
168,14,beaver,0.933637406677,left,1,correct,arm2,3,arm23,beaver
169,15,arc,0.716958765872,space,1,correct,target,NaN,targetNaN,arc
170,15,trophy,0.600454298314,right,1,correct,path,1,path1,arc
171,15,astronaut,0.216960577294,right,1,correct,path,2,path2,arc
172,15,robot,0.400269560516,right,1,correct,path,3,path3,arc
173,15,watch,0.816928881686,left,1,correct,decision,1,decision1,arc
174,15,clover,1.91668709228,left,1,correct,arm1,1,arm11,arc
175,15,radio,0.366982914507,right,1,correct,arm1,2,arm12,arc
176,15,wing,0.416953634471,left,1,correct,arm1,3,arm13,arc
177,15,holly,0.517072566785,right,1,correct,decision,2,decision2,arc
178,15,match,0.9169515213,right,1,correct,arm2,1,arm21,arc
179,15,baby,0.666931900661,right,1,correct,arm2,2,arm22,arc
180,15,arc,0.550278012641,left,1,correct,arm2,3,arm23,arc
181,16,beaver,0.417291716672,space,1,correct,target,NaN,targetNaN,beaver
182,16,trophy,0.51689084759,right,1,correct,path,1,path1,beaver
183,16,astronaut,0.200269258581,right,1,correct,path,2,path2,beaver
184,16,robot,0.183629859705,right,1,correct,path,3,path3,beaver
185,16,pigeon,0.700363438576,right,1,correct,decision,1,decision1,beaver
186,16,bus,1.21691922238,right,1,correct,arm1,1,arm11,beaver
187,16,deer,0.45039664302,left,1,correct,arm1,2,arm12,beaver
188,16,fist,0.217079207767,left,1,correct,arm1,3,arm13,beaver
189,16,stepladder,0.750286464579,left,1,correct,decision,2,decision2,beaver
190,16,calc,0.53356345091,right,1,correct,arm2,1,arm21,beaver
191,16,tongue,0.383618389256,right,1,correct,arm2,2,arm22,beaver
192,16,beaver,1.1169469934,left,1,correct,arm2,3,arm23,beaver
193,17,beaver,0.450305783655,space,1,correct,target,NaN,targetNaN,beaver
194,17,trophy,0.416912279557,right,1,correct,path,1,path1,beaver
195,17,astronaut,0.150287068449,right,1,correct,path,2,path2,beaver
196,17,robot,0.216951521114,right,1,correct,path,3,path3,beaver
197,17,pigeon,0.466978990939,right,1,correct,decision,1,decision1,beaver
198,17,bus,0.600281634834,right,1,correct,arm1,1,arm11,beaver
199,17,deer,0.433668799698,left,1,correct,arm1,2,arm12,beaver
200,17,fist,0.26695665298,left,1,correct,arm1,3,arm13,beaver
201,17,stepladder,0.76689416822,right,1,correct,decision,2,decision2,beaver
202,17,calc,0.666920430027,right,1,correct,arm2,1,arm21,beaver
203,17,tongue,0.350326309912,right,1,correct,arm2,2,arm22,beaver
204,17,beaver,0.333614465315,left,1,correct,arm2,3,arm23,beaver
205,18,arc,0.350373400375,space,-1,miss,target,NaN,targetNaN,arc
206,18,trophy,0.366940050386,right,-1,miss,path,1,path1,arc
207,18,astronaut,0.133588505443,right,-1,miss,path,2,path2,arc
208,18,robot,0.166937635746,right,-1,miss,path,3,path3,arc
209,18,pigeon,0.433638915885,right,-1,miss,decision,1,decision1,arc
210,18,bus,1.41753652506,right,-1,miss,arm1,1,arm11,arc
211,18,deer,0.450290690642,left,-1,miss,arm1,2,arm12,arc
212,18,fist,0.333638010081,left,-1,miss,arm1,3,arm13,arc
213,18,stepladder,0.350325404666,right,-1,miss,decision,2,decision2,arc
214,18,calc,0.46695906762,right,-1,miss,arm2,1,arm21,arc
215,18,tongue,0.366954539903,right,-1,miss,arm2,2,arm22,arc
216,18,beaver,0.316998912953,left,-1,miss,arm2,3,arm23,arc
217,19,arc,0.700393624604,space,1,correct,target,NaN,targetNaN,arc
218,19,trophy,0.433562545571,right,1,correct,path,1,path1,arc
219,19,astronaut,0.217093093321,right,1,correct,path,2,path2,arc
220,19,robot,0.316896884702,right,1,correct,path,3,path3,arc
221,19,watch,0.466936730314,left,1,correct,decision,1,decision1,arc
222,19,clover,0.966950615868,left,1,correct,arm1,1,arm11,arc
223,19,radio,0.433609031606,right,1,correct,arm1,2,arm12,arc
224,19,wing,0.267142296769,left,1,correct,arm1,3,arm13,arc
225,19,holly,0.73356254492,left,1,correct,decision,2,decision2,arc
226,19,match,0.450274994131,right,1,correct,arm2,1,arm21,arc
227,19,baby,0.28356465837,right,1,correct,arm2,2,arm22,arc
228,19,arc,0.366928278003,left,1,correct,arm2,3,arm23,arc
229,20,arc,0.583607522305,space,1,correct,target,NaN,targetNaN,arc
230,20,trophy,0.36695393594,right,1,correct,path,1,path1,arc
231,20,astronaut,0.200303670485,right,1,correct,path,2,path2,arc
232,20,robot,0.200268655084,right,1,correct,path,3,path3,arc
233,20,watch,0.533591523767,left,1,correct,decision,1,decision1,arc
234,20,clover,0.866972047836,left,1,correct,arm1,1,arm11,arc
235,20,radio,0.350436488632,right,1,correct,arm1,2,arm12,arc
236,20,wing,0.283587901387,left,1,correct,arm1,3,arm13,arc
237,20,holly,0.850280729122,left,1,correct,decision,2,decision2,arc
238,20,match,0.400253562257,right,1,correct,arm2,1,arm21,arc
239,20,baby,0.216910468414,right,1,correct,arm2,2,arm22,arc
240,20,arc,0.666979895905,left,1,correct,arm2,3,arm23,arc
241,21,beaver,1.25031242426,space,1,correct,target,NaN,targetNaN,beaver
242,21,trophy,0.50024661934,right,1,correct,path,1,path1,beaver
243,21,astronaut,0.183616880327,right,1,correct,path,2,path2,beaver
244,21,robot,0.550313632004,right,1,correct,path,3,path3,beaver
245,21,pigeon,0.683583675418,right,1,correct,decision,1,decision1,beaver
246,21,bus,3.41693673003,right,1,correct,arm1,1,arm11,beaver
247,21,deer,0.583841765299,left,1,correct,arm1,2,arm12,beaver
248,21,fist,0.200303066988,left,1,correct,arm1,3,arm13,beaver
249,21,stepladder,0.900287068449,right,1,correct,decision,2,decision2,beaver
250,21,calc,0.383621105924,right,1,correct,arm2,1,arm21,beaver
251,21,tongue,0.217006761581,right,1,correct,arm2,2,arm22,beaver
252,21,beaver,1.26698683854,left,1,correct,arm2,3,arm23,beaver
253,22,arc,0.233704721089,space,1,correct,target,NaN,targetNaN,arc
254,22,trophy,0.38367091259,right,1,correct,path,1,path1,arc
255,22,astronaut,0.200368570164,right,1,correct,path,2,path2,arc
256,22,robot,0.283902438823,right,1,correct,path,3,path3,arc
257,22,watch,0.500312424265,left,1,correct,decision,1,decision1,arc
258,22,clover,0.63363348227,left,1,correct,arm1,1,arm11,arc
259,22,radio,0.466777046211,right,1,correct,arm1,2,arm12,arc
260,22,wing,0.250360722188,left,1,correct,arm1,3,arm13,arc
261,22,holly,0.583652801346,left,1,correct,decision,2,decision2,arc
262,22,match,0.467007063795,right,1,correct,arm2,1,arm21,arc
263,22,baby,0.233584882692,right,1,correct,arm2,2,arm22,arc
264,22,arc,0.366966614034,left,1,correct,arm2,3,arm23,arc
265,23,beaver,0.533677553758,space,1,correct,target,NaN,targetNaN,beaver
266,23,trophy,0.517228025012,right,1,correct,path,1,path1,beaver
267,23,astronaut,0.183476817328,right,1,correct,path,2,path2,beaver
268,23,robot,0.466968123801,right,1,correct,path,3,path3,beaver
269,23,pigeon,1.41695967177,left,1,correct,decision,1,decision1,beaver
270,23,bus,1.21696269047,right,1,correct,arm1,1,arm11,beaver
271,23,deer,0.416965105105,left,1,correct,arm1,2,arm12,beaver
272,23,fist,0.233580354601,left,1,correct,arm1,3,arm13,beaver
273,23,stepladder,0.66693220241,left,1,correct,decision,2,decision2,beaver
274,23,calc,0.501111144666,right,1,correct,arm2,1,arm21,beaver
275,23,tongue,0.650389398914,right,1,correct,arm2,2,arm22,beaver
276,23,beaver,0.750293105841,left,1,correct,arm2,3,arm23,beaver
277,24,arc,0.26717821788,space,1,correct,target,NaN,targetNaN,arc
278,24,trophy,0.466915600002,right,1,correct,path,1,path1,arc
279,24,astronaut,0.183963716496,right,1,correct,path,2,path2,arc
280,24,robot,0.416893262416,right,1,correct,path,3,path3,arc
281,24,watch,0.533734001685,right,1,correct,decision,1,decision1,arc
282,24,clover,0.733669101726,left,1,correct,arm1,1,arm11,arc
283,24,radio,0.400516481604,right,1,correct,arm1,2,arm12,arc
284,24,wing,0.450359514914,left,1,correct,arm1,3,arm13,arc
285,24,holly,0.616914694197,left,1,correct,decision,2,decision2,arc
286,24,match,0.433695967309,right,1,correct,arm2,1,arm21,arc
287,24,baby,1.1170360418,right,1,correct,arm2,2,arm22,arc
288,24,arc,0.550348346122,left,1,correct,arm2,3,arm23,arc
289,25,beaver,0.683637406677,space,1,correct,target,NaN,targetNaN,beaver
290,25,trophy,0.333601485007,right,1,correct,path,1,path1,beaver
291,25,astronaut,0.167158898897,right,1,correct,path,2,path2,beaver
292,25,robot,0.266961784568,right,1,correct,path,3,path3,beaver
293,25,pigeon,0.333636199124,right,1,correct,decision,1,decision1,beaver
294,25,bus,0.600347440224,right,1,correct,arm1,1,arm11,beaver
295,25,deer,0.316989555955,left,1,correct,arm1,2,arm12,beaver
296,25,fist,0.383633784018,left,1,correct,arm1,3,arm13,beaver
297,25,stepladder,1.00026322156,left,1,correct,decision,2,decision2,beaver
298,25,calc,0.367027590051,right,1,correct,arm2,1,arm21,beaver
299,25,tongue,0.35035408102,right,1,correct,arm2,2,arm22,beaver
300,25,beaver,0.61708675418,left,1,correct,arm2,3,arm23,beaver
301,26,arc,0.400344119873,space,1,correct,target,NaN,targetNaN,arc
302,26,trophy,0.51695786044,right,1,correct,path,1,path1,arc
303,26,astronaut,0.283722832799,right,1,correct,path,2,path2,arc
304,26,robot,0.400310311466,right,1,correct,path,3,path3,arc
305,26,watch,2.56674565328,left,1,correct,decision,1,decision1,arc
306,26,clover,1.18373792572,left,1,correct,arm1,1,arm11,arc
307,26,radio,0.267125694081,right,1,correct,arm1,2,arm12,arc
308,26,wing,0.216950313654,left,1,correct,arm1,3,arm13,arc
309,26,holly,0.750277710613,right,1,correct,decision,2,decision2,arc
310,26,match,0.483666385058,right,1,correct,arm2,1,arm21,arc
311,26,baby,0.816745653283,right,1,correct,arm2,2,arm22,arc
312,26,arc,0.266916505992,left,1,correct,arm2,3,arm23,arc
313,27,beaver,0.533704720903,space,-1,miss,target,NaN,targetNaN,beaver
314,27,trophy,0.350295218639,right,-1,miss,path,1,path1,beaver
315,27,astronaut,0.183787430637,right,-1,miss,path,2,path2,beaver
316,27,robot,0.233544735238,right,-1,miss,path,3,path3,beaver
317,27,pigeon,0.31695967121,right,-1,miss,decision,1,decision1,beaver
318,27,bus,0.583668799605,right,-1,miss,arm1,1,arm11,beaver
319,27,deer,0.283707135823,left,-1,miss,arm1,2,arm12,beaver
320,27,fist,0.217162822839,left,-1,miss,arm1,3,arm13,beaver
321,27,holly,0.783718908206,right,-1,miss,decision,2,decision2,beaver
322,27,match,1.01712146821,right,-1,miss,arm2,1,arm21,beaver
323,27,baby,0.833832709119,right,-1,miss,arm2,2,arm22,beaver
324,27,arc,0.75037158886,left,-1,miss,arm2,3,arm23,beaver
325,28,beaver,0.317138372455,space,1,correct,target,NaN,targetNaN,beaver
326,28,trophy,0.650488106534,right,1,correct,path,1,path1,beaver
327,28,astronaut,0.20026956033,right,1,correct,path,2,path2,beaver
328,28,robot,0.400575042237,right,1,correct,path,3,path3,beaver
329,28,pigeon,1.46695423825,left,1,correct,decision,1,decision1,beaver
330,28,bus,0.517267568503,right,1,correct,arm1,1,arm11,beaver
331,28,deer,1.16719240509,left,1,correct,arm1,2,arm12,beaver
332,28,fist,0.333628652617,left,1,correct,arm1,3,arm13,beaver
333,28,stepladder,1.7169485027,left,1,correct,decision,2,decision2,beaver
334,28,calc,0.467228930444,right,1,correct,arm2,1,arm21,beaver
335,28,tongue,0.200377928093,right,1,correct,arm2,2,arm22,beaver
336,28,beaver,0.450363740791,left,1,correct,arm2,3,arm23,beaver
337,29,arc,0.233459309209,space,1,correct,target,NaN,targetNaN,arc
338,29,trophy,0.433689024299,right,1,correct,path,1,path1,arc
339,29,astronaut,0.117112714332,right,1,correct,path,2,path2,arc
340,29,robot,0.35027227737,right,1,correct,path,3,path3,arc
341,29,watch,1.15025688242,right,1,correct,decision,1,decision1,arc
342,29,clover,0.550271070097,left,1,correct,arm1,1,arm11,arc
343,29,radio,0.633680572268,right,1,correct,arm1,2,arm12,arc
344,29,wing,0.283790449146,left,1,correct,arm1,3,arm13,arc
345,29,holly,0.63402891811,right,1,correct,decision,2,decision2,arc
346,29,match,0.616939446889,right,1,correct,arm2,1,arm21,arc
347,29,baby,0.683596051764,right,1,correct,arm2,2,arm22,arc
348,29,arc,0.183724643663,left,1,correct,arm2,3,arm23,arc
349,30,arc,0.900263824966,space,1,correct,target,NaN,targetNaN,arc
350,30,trophy,0.416965105105,right,1,correct,path,1,path1,arc
351,30,astronaut,0.150035921484,right,1,correct,path,2,path2,arc
352,30,robot,0.400297029875,right,1,correct,path,3,path3,arc
353,30,watch,0.433672422078,right,1,correct,decision,1,decision1,arc
354,30,clover,1.6502819364,left,1,correct,arm1,1,arm11,arc
355,30,radio,0.250303670764,right,1,correct,arm1,2,arm12,arc
356,30,wing,0.283593938686,left,1,correct,arm1,3,arm13,arc
357,30,holly,0.716947295237,left,1,correct,decision,2,decision2,arc
358,30,match,0.416993781924,right,1,correct,arm2,1,arm21,arc
359,30,baby,0.416924958117,right,1,correct,arm2,2,arm22,arc
360,30,arc,0.183643141761,left,1,correct,arm2,3,arm23,arc
361,31,arc,0.733637104277,space,1,correct,target,NaN,targetNaN,arc
362,31,trophy,0.350294916425,right,1,correct,path,1,path1,arc
363,31,astronaut,0.183627746534,right,1,correct,path,2,path2,arc
364,31,robot,0.250262315851,right,1,correct,path,3,path3,arc
365,31,watch,0.616963293869,left,1,correct,decision,1,decision1,arc
366,31,clover,2.46705143712,left,1,correct,arm1,1,arm11,arc
367,31,radio,0.300373400096,right,1,correct,arm1,2,arm12,arc
368,31,wing,0.266820212826,left,1,correct,arm1,3,arm13,arc
369,31,holly,0.700260202866,right,1,correct,decision,2,decision2,arc
370,31,match,0.333681477699,right,1,correct,arm2,1,arm21,arc
371,31,baby,0.333621105645,right,1,correct,arm2,2,arm22,arc
372,31,arc,0.26696238853,left,1,correct,arm2,3,arm23,arc
373,32,beaver,0.583602390718,space,1,correct,target,NaN,targetNaN,beaver
374,32,trophy,0.433638915885,right,1,correct,path,1,path1,beaver
375,32,astronaut,0.150211905129,right,1,correct,path,2,path2,beaver
376,32,robot,0.116720598657,right,1,correct,path,3,path3,beaver
377,32,pigeon,0.750411736313,left,1,correct,decision,1,decision1,beaver
378,32,bus,0.8003202728,right,1,correct,arm1,1,arm11,beaver
379,32,deer,0.416932201944,left,1,correct,arm1,2,arm12,beaver
380,32,fist,0.416927976534,left,1,correct,arm1,3,arm13,beaver
381,32,stepladder,0.750327819493,left,1,correct,decision,2,decision2,beaver
382,32,calc,0.400268957019,right,1,correct,arm2,1,arm21,beaver
383,32,tongue,0.400274692103,right,1,correct,arm2,2,arm22,beaver
384,32,beaver,0.683581864461,left,1,correct,arm2,3,arm23,beaver
385,33,beaver,0.466969935223,space,1,correct,target,NaN,targetNaN,beaver
386,33,trophy,1.31695936946,right,1,correct,path,1,path1,beaver
387,33,astronaut,0.200210697949,right,1,correct,path,2,path2,beaver
388,33,robot,0.633619596716,right,1,correct,path,3,path3,beaver
389,33,pigeon,0.333574015647,right,1,correct,decision,1,decision1,beaver
390,33,bus,0.850296727847,right,1,correct,arm1,1,arm11,beaver
391,33,deer,0.500258089975,left,1,correct,arm1,2,arm12,beaver
392,33,fist,0.233621106017,left,1,correct,arm1,3,arm13,beaver
393,33,stepladder,1.41695031384,left,1,correct,decision,2,decision2,beaver
394,33,calc,0.433642538264,right,1,correct,arm2,1,arm21,beaver
395,33,tongue,0.316921335179,right,1,correct,arm2,2,arm22,beaver
396,33,beaver,0.733607220463,left,1,correct,arm2,3,arm23,beaver
397,34,arc,0.583677855786,space,1,correct,target,NaN,targetNaN,arc
398,34,trophy,0.500204962678,right,1,correct,path,1,path1,arc
399,34,astronaut,0.316976575647,right,1,correct,path,2,path2,arc
400,34,robot,0.283772941679,right,1,correct,path,3,path3,arc
401,34,watch,0.416968123522,right,1,correct,decision,1,decision1,arc
402,34,clover,0.999985510949,left,1,correct,arm1,1,arm11,arc
403,34,radio,0.267000724096,right,1,correct,arm1,2,arm12,arc
404,34,wing,0.350322989747,left,1,correct,arm1,3,arm13,arc
405,34,holly,0.583623822778,right,1,correct,decision,2,decision2,arc
406,34,match,0.400800833479,right,1,correct,arm2,1,arm21,arc
407,34,baby,0.25028978521,right,1,correct,arm2,2,arm22,arc
408,34,arc,0.216958464123,left,1,correct,arm2,3,arm23,arc
409,35,arc,0.366941861808,space,1,correct,target,NaN,targetNaN,arc
410,35,trophy,0.53363287868,right,1,correct,path,1,path1,arc
411,35,astronaut,0.433608729858,right,1,correct,path,2,path2,arc
412,35,robot,0.383648273535,right,1,correct,path,3,path3,arc
413,35,watch,0.433626841288,right,1,correct,decision,1,decision1,arc
414,35,clover,1.00029250188,left,1,correct,arm1,1,arm11,arc
415,35,radio,0.216963596176,right,1,correct,arm1,2,arm12,arc
416,35,wing,0.200324499048,left,1,correct,arm1,3,arm13,arc
417,35,holly,0.633542924654,left,1,correct,decision,2,decision2,arc
418,35,match,0.333621407859,right,1,correct,arm2,1,arm21,arc
419,35,baby,0.18356948765,right,1,correct,arm2,2,arm22,arc
420,35,arc,0.233402861748,left,1,correct,arm2,3,arm23,arc
421,36,beaver,0.500356194098,space,1,correct,target,NaN,targetNaN,beaver
422,36,trophy,0.666987744626,right,1,correct,path,1,path1,beaver
423,36,astronaut,0.166979594156,right,1,correct,path,2,path2,beaver
424,36,robot,0.316956351511,right,1,correct,path,3,path3,beaver
425,36,pigeon,0.266978085041,right,1,correct,decision,1,decision1,beaver
426,36,bus,0.933641330805,right,1,correct,arm1,1,arm11,beaver
427,36,deer,0.450282540172,left,1,correct,arm1,2,arm12,beaver
428,36,fist,0.216971745715,left,1,correct,arm1,3,arm13,beaver
429,36,stepladder,0.76703845663,left,1,correct,decision,2,decision2,beaver
430,36,calc,0.483641934115,right,1,correct,arm2,1,arm21,beaver
431,36,tongue,0.283705324866,right,1,correct,arm2,2,arm22,beaver
432,36,beaver,0.400444336701,left,1,correct,arm2,3,arm23,beaver
433,37,arc,0.317023062147,space,-1,miss,target,NaN,targetNaN,arc
434,37,trophy,0.433659442235,right,-1,miss,path,1,path1,arc
435,37,astronaut,0.166973556858,right,-1,miss,path,2,path2,arc
436,37,robot,0.250083916821,right,-1,miss,path,3,path3,arc
437,37,pigeon,1.30031091534,left,-1,miss,decision,1,decision1,arc
438,37,bus,1.30028163502,right,-1,miss,arm1,1,arm11,arc
439,37,deer,0.417007063515,left,-1,miss,arm1,2,arm12,arc
440,37,fist,0.217062303796,left,-1,miss,arm1,3,arm13,arc
441,37,stepladder,0.816975669935,left,-1,miss,decision,2,decision2,arc
442,37,calc,0.433683590963,right,-1,miss,arm2,1,arm21,arc
443,37,tongue,0.266905940603,right,-1,miss,arm2,2,arm22,arc
444,37,beaver,0.666958463844,left,-1,miss,arm2,3,arm23,arc
445,38,beaver,0.350308801979,space,1,correct,target,NaN,targetNaN,beaver
446,38,trophy,0.48368298728,right,1,correct,path,1,path1,beaver
447,38,astronaut,0.183584882878,right,1,correct,path,2,path2,beaver
448,38,robot,0.266962992027,right,1,correct,path,3,path3,beaver
449,38,pigeon,2.9002260929,left,1,correct,decision,1,decision1,beaver
450,38,bus,0.517201762646,right,1,correct,arm1,1,arm11,beaver
451,38,deer,0.400283747818,left,1,correct,arm1,2,arm12,beaver
452,38,fist,0.216978084762,left,1,correct,arm1,3,arm13,beaver
453,38,stepladder,0.800271673128,right,1,correct,decision,2,decision2,beaver
454,38,calc,1.16710003652,right,1,correct,arm2,1,arm21,beaver
455,38,tongue,0.383637104649,right,1,correct,arm2,2,arm22,beaver
456,38,beaver,0.350304878317,left,1,correct,arm2,3,arm23,beaver
457,39,arc,1.23371256934,space,-1,miss,target,NaN,targetNaN,arc
458,39,trophy,4.55031604692,right,-1,miss,path,1,path1,arc
459,39,astronaut,0.116981103551,right,-1,miss,path,2,path2,arc
460,39,robot,0.283583071548,right,-1,miss,path,3,path3,arc
461,39,pigeon,0.366978386883,left,-1,miss,decision,1,decision1,arc
462,39,bus,3.4002206591,right,-1,miss,arm1,1,arm11,arc
463,39,deer,1.91684888909,left,-1,miss,arm1,2,arm12,arc
464,39,fist,0.517270586919,left,-1,miss,arm1,3,arm13,arc
465,39,stepladder,0.983484061901,right,-1,miss,decision,2,decision2,arc
466,39,calc,0.3836165783,right,-1,miss,arm2,1,arm21,arc
467,39,tongue,0.40032661194,right,-1,miss,arm2,2,arm22,arc
468,39,beaver,0.467143805698,left,-1,miss,arm2,3,arm23,arc
469,40,beaver,0.500278918073,space,1,correct,target,NaN,targetNaN,beaver
470,40,trophy,0.450325102545,right,1,correct,path,1,path1,beaver
471,40,astronaut,0.183676346205,right,1,correct,path,2,path2,beaver
472,40,robot,0.25011017872,right,1,correct,path,3,path3,beaver
473,40,pigeon,0.316953332629,right,1,correct,decision,1,decision1,beaver
474,40,bus,0.516953936312,right,1,correct,arm1,1,arm11,beaver
475,40,deer,0.516764972359,left,1,correct,arm1,2,arm12,beaver
476,40,fist,0.200266541913,left,1,correct,arm1,3,arm13,beaver
477,40,stepladder,0.633625030052,right,1,correct,decision,2,decision2,beaver
478,40,calc,0.366928580217,right,1,correct,arm2,1,arm21,beaver
479,40,tongue,0.400317857973,right,1,correct,arm2,2,arm22,beaver
480,40,beaver,0.36702094879,left,1,correct,arm2,3,arm23,beaver
481,41,beaver,0.300115612336,space,1,correct,target,NaN,targetNaN,beaver
482,41,trophy,0.450278918259,right,1,correct,path,1,path1,beaver
483,41,astronaut,0.183663064148,right,1,correct,path,2,path2,beaver
484,41,robot,0.416937333997,right,1,correct,path,3,path3,beaver
485,41,pigeon,0.950304877944,left,1,correct,decision,1,decision1,beaver
486,41,bus,0.600259901024,right,1,correct,arm1,1,arm11,beaver
487,41,deer,0.416977783199,left,1,correct,arm1,2,arm12,beaver
488,41,fist,0.233647367917,left,1,correct,arm1,3,arm13,beaver
489,41,stepladder,1.31698049977,right,1,correct,decision,2,decision2,beaver
490,41,calc,0.433604503516,right,1,correct,arm2,1,arm21,beaver
491,41,tongue,0.400347138289,right,1,correct,arm2,2,arm22,beaver
492,41,beaver,0.66693099495,left,1,correct,arm2,3,arm23,beaver
493,42,beaver,1.23362352094,space,1,correct,target,NaN,targetNaN,beaver
494,42,trophy,1.81693461724,right,1,correct,path,1,path1,beaver
495,42,astronaut,0.200286766514,right,1,correct,path,2,path2,beaver
496,42,robot,0.316976273898,right,1,correct,path,3,path3,beaver
497,42,pigeon,1.45025929715,left,1,correct,decision,1,decision1,beaver
498,42,bus,0.483708041254,right,1,correct,arm1,1,arm11,beaver
499,42,deer,0.433657027315,left,1,correct,arm1,2,arm12,beaver
500,42,fist,0.166943069082,left,1,correct,arm1,3,arm13,beaver
501,42,stepladder,0.633754528128,right,1,correct,decision,2,decision2,beaver
502,42,calc,0.333495834377,right,1,correct,arm2,1,arm21,beaver
503,42,tongue,0.233682081569,right,1,correct,arm2,2,arm22,beaver
504,42,beaver,0.350259901024,left,1,correct,arm2,3,arm23,beaver
505,43,arc,0.650275899563,space,1,correct,target,NaN,targetNaN,arc
506,43,trophy,0.333753622137,right,1,correct,path,1,path1,arc
507,43,astronaut,0.166716976557,right,1,correct,path,2,path2,arc
508,43,robot,0.183627143037,right,1,correct,path,3,path3,arc
509,43,watch,0.517076189164,left,1,correct,decision,1,decision1,arc
510,43,clover,1.25025839172,left,1,correct,arm1,1,arm11,arc
511,43,radio,0.300288879313,right,1,correct,arm1,2,arm12,arc
512,43,wing,0.216966614127,left,1,correct,arm1,3,arm13,arc
513,43,holly,0.550294916611,left,1,correct,decision,2,decision2,arc
514,43,match,0.366919222288,right,1,correct,arm2,1,arm21,arc
515,43,baby,0.200282238889,right,1,correct,arm2,2,arm22,arc
516,43,arc,0.200279521756,left,1,correct,arm2,3,arm23,arc
517,44,arc,0.283695061691,space,1,correct,target,NaN,targetNaN,arc
518,44,trophy,0.366951219738,right,1,correct,path,1,path1,arc
519,44,astronaut,0.150280729402,right,1,correct,path,2,path2,arc
520,44,robot,0.167028495111,right,1,correct,path,3,path3,arc
521,44,watch,0.783671516925,right,1,correct,decision,1,decision1,arc
522,44,clover,0.45025718445,left,1,correct,arm1,1,arm11,arc
523,44,radio,0.200263825245,right,1,correct,arm1,2,arm12,arc
524,44,wing,0.233671214897,left,1,correct,arm1,3,arm13,arc
525,44,holly,0.517007667106,right,1,correct,decision,2,decision2,arc
526,44,match,0.400094481651,right,1,correct,arm2,1,arm21,arc
527,44,baby,0.183732491918,right,1,correct,arm2,2,arm22,arc
528,44,arc,0.333583373576,left,1,correct,arm2,3,arm23,arc
529,45,arc,0.666707316879,space,-1,miss,target,NaN,targetNaN,arc
530,45,trophy,2.95027952222,right,-1,miss,path,1,path1,arc
531,45,astronaut,0.266913788859,right,-1,miss,path,2,path2,arc
532,45,robot,0.266934617423,right,-1,miss,path,3,path3,arc
533,45,watch,0.383558922913,right,-1,miss,decision,1,decision1,arc
534,45,clover,0.466951822862,left,-1,miss,arm1,1,arm11,arc
535,45,radio,0.18365038652,right,-1,miss,arm1,2,arm12,arc
536,45,wing,0.250327517278,left,-1,miss,arm1,3,arm13,arc
537,45,stepladder,0.367058681324,right,-1,miss,decision,2,decision2,arc
538,45,calc,1.08363710437,right,-1,miss,arm2,1,arm21,arc
539,45,tongue,0.400219451636,right,-1,miss,arm2,2,arm22,arc
540,45,beaver,0.550236355979,left,-1,miss,arm2,3,arm23,arc
541,46,arc,0.600275899749,space,1,correct,target,NaN,targetNaN,arc
542,46,trophy,0.200291898102,right,1,correct,path,1,path1,arc
543,46,astronaut,0.16695604939,right,1,correct,path,2,path2,arc
544,46,robot,0.166936730035,right,1,correct,path,3,path3,arc
545,46,watch,0.26697023632,right,1,correct,decision,1,decision1,arc
546,46,clover,0.433599673677,left,1,correct,arm1,1,arm11,arc
547,46,radio,0.383653405122,right,1,correct,arm1,2,arm12,arc
548,46,wing,0.383644952904,left,1,correct,arm1,3,arm13,arc
549,46,holly,1.28358578868,left,1,correct,decision,2,decision2,arc
550,46,match,0.483696268871,right,1,correct,arm2,1,arm21,arc
551,46,baby,0.200325706508,right,1,correct,arm2,2,arm22,arc
552,46,arc,0.51698170742,left,1,correct,arm2,3,arm23,arc
553,47,beaver,0.61692224117,space,1,correct,target,NaN,targetNaN,beaver
554,47,trophy,0.250383361243,right,1,correct,path,1,path1,beaver
555,47,astronaut,0.166720900685,right,1,correct,path,2,path2,beaver
556,47,robot,0.317031815648,right,1,correct,path,3,path3,beaver
557,47,pigeon,0.500391813461,right,1,correct,decision,1,decision1,beaver
558,47,bus,0.850327215623,right,1,correct,arm1,1,arm11,beaver
559,47,deer,0.300382455811,left,1,correct,arm1,2,arm12,beaver
560,47,fist,0.200480862055,left,1,correct,arm1,3,arm13,beaver
561,47,stepladder,0.56714048516,right,1,correct,decision,2,decision2,beaver
562,47,calc,0.48362050252,right,1,correct,arm2,1,arm21,beaver
563,47,tongue,0.517023967579,right,1,correct,arm2,2,arm22,beaver
564,47,beaver,0.317002535332,left,1,correct,arm2,3,arm23,beaver
565,48,arc,0.450432866812,space,1,correct,target,NaN,targetNaN,arc
566,48,trophy,0.533779582009,right,1,correct,path,1,path1,arc
567,48,astronaut,0.150448563043,right,1,correct,path,2,path2,arc
568,48,robot,0.466924353968,right,1,correct,path,3,path3,arc
569,48,watch,0.333649481181,left,1,correct,decision,1,decision1,arc
570,48,clover,1.28358639218,left,1,correct,arm1,1,arm11,arc
571,48,radio,0.16694337083,right,1,correct,arm1,2,arm12,arc
572,48,wing,0.216760746203,left,1,correct,arm1,3,arm13,arc
573,48,holly,0.700295520481,right,1,correct,decision,2,decision2,arc
574,48,match,0.433660951443,right,1,correct,arm2,1,arm21,arc
575,48,baby,0.233625634108,right,1,correct,arm2,2,arm22,arc
576,48,arc,0.267066831701,left,1,correct,arm2,3,arm23,arc
577,49,arc,0.233647669666,space,1,correct,target,NaN,targetNaN,arc
578,49,trophy,0.800354986452,right,1,correct,path,1,path1,arc
579,49,astronaut,0.150403585751,right,1,correct,path,2,path2,arc
580,49,robot,0.250329026952,right,1,correct,path,3,path3,arc
581,49,watch,0.500270768069,right,1,correct,decision,1,decision1,arc
582,49,clover,0.450249335729,left,1,correct,arm1,1,arm11,arc
583,49,radio,0.216958464123,right,1,correct,arm1,2,arm12,arc
584,49,wing,0.200298237149,left,1,correct,arm1,3,arm13,arc
585,49,holly,0.700274390168,left,1,correct,decision,2,decision2,arc
586,49,match,0.383624124806,right,1,correct,arm2,1,arm21,arc
587,49,baby,0.216790932231,right,1,correct,arm2,2,arm22,arc
588,49,arc,1.10031212261,left,1,correct,arm2,3,arm23,arc
589,50,beaver,0.400354382582,space,1,correct,target,NaN,targetNaN,beaver
590,50,trophy,0.300294916611,right,1,correct,path,1,path1,beaver
591,50,astronaut,0.167006157804,right,1,correct,path,2,path2,beaver
592,50,robot,0.266978688538,right,1,correct,path,3,path3,beaver
593,50,pigeon,0.633627444971,left,1,correct,decision,1,decision1,beaver
594,50,bus,0.98372615315,right,1,correct,arm1,1,arm11,beaver
595,50,deer,0.400327517651,left,1,correct,arm1,2,arm12,beaver
596,50,fist,0.216762255412,left,1,correct,arm1,3,arm13,beaver
597,50,stepladder,0.567006459925,right,1,correct,decision,2,decision2,beaver
598,50,calc,0.417004950345,right,1,correct,arm2,1,arm21,beaver
599,50,tongue,0.516969331075,right,1,correct,arm2,2,arm22,beaver
600,50,beaver,0.200305481441,left,1,correct,arm2,3,arm23,beaver
