pic_index,trial_num,pic_name,rt,resp,feedback_code,feedback,segment,segment_index,pic_type,trial_target
1,1,beaver,0.833618087228,space,1,correct,target,NaN,targetNaN,beaver
2,1,trophy,1.3335797512,right,1,correct,path,1,path1,beaver
3,1,astronaut,0.416920429561,right,1,correct,path,2,path2,beaver
4,1,robot,0.533579751384,right,1,correct,path,3,path3,beaver
5,1,pigeon,2.20026382525,right,1,correct,decision,1,decision1,beaver
6,1,bus,0.750235752203,right,1,correct,arm1,1,arm11,beaver
7,1,deer,0.416918316856,left,1,correct,arm1,2,arm12,beaver
8,1,fist,0.216899299994,left,1,correct,arm1,3,arm13,beaver
9,1,stepladder,0.683603598271,left,1,correct,decision,2,decision2,beaver
10,1,calc,0.433614163194,right,1,correct,arm2,1,arm21,beaver
11,1,tongue,0.28340437077,right,1,correct,arm2,2,arm22,beaver
12,1,beaver,0.433654612396,left,1,correct,arm2,3,arm23,beaver
13,2,arc,0.86697114259,space,1,correct,target,NaN,targetNaN,arc
14,2,trophy,0.450297331437,right,1,correct,path,1,path1,arc
15,2,astronaut,0.166921637487,right,1,correct,path,2,path2,arc
16,2,robot,0.350243600551,right,1,correct,path,3,path3,arc
17,2,watch,0.783583675511,left,1,correct,decision,1,decision1,arc
18,2,clover,0.550322385971,left,1,correct,arm1,1,arm11,arc
19,2,radio,0.166930693202,right,1,correct,arm1,2,arm12,arc
20,2,wing,0.150544554461,left,1,correct,arm1,3,arm13,arc
21,2,holly,0.700164513197,right,1,correct,decision,2,decision2,arc
22,2,match,0.516947295517,right,1,correct,arm2,1,arm21,arc
23,2,baby,0.183598768432,right,1,correct,arm2,2,arm22,arc
24,2,arc,0.30026895646,left,1,correct,arm2,3,arm23,arc
25,3,beaver,0.300270466134,space,1,correct,target,NaN,targetNaN,beaver
26,3,trophy,1.11692978721,right,1,correct,path,1,path1,beaver
27,3,astronaut,0.216884508729,right,1,correct,path,2,path2,beaver
28,3,robot,0.333696570713,right,1,correct,path,3,path3,beaver
29,3,pigeon,0.383624426089,right,1,correct,decision,1,decision1,beaver
30,3,bus,0.417247041594,right,1,correct,arm1,1,arm11,beaver
31,3,deer,0.300318461843,left,1,correct,arm1,2,arm12,beaver
32,3,fist,0.200385172851,left,1,correct,arm1,3,arm13,beaver
33,3,stepladder,0.617015213706,right,1,correct,decision,2,decision2,beaver
34,3,calc,0.40032661194,right,1,correct,arm2,1,arm21,beaver
35,3,tongue,0.333587599918,right,1,correct,arm2,2,arm22,beaver
36,3,beaver,0.267183953431,left,1,correct,arm2,3,arm23,beaver
37,4,arc,0.750303369015,space,1,correct,target,NaN,targetNaN,arc
38,4,trophy,0.450304576196,right,1,correct,path,1,path1,arc
39,4,astronaut,0.150313330349,right,1,correct,path,2,path2,arc
40,4,robot,0.183556206059,right,1,correct,path,3,path3,arc
41,4,watch,0.65030729305,right,1,correct,decision,1,decision1,arc
42,4,clover,0.450294615235,left,1,correct,arm1,1,arm11,arc
43,4,radio,0.133576129097,right,1,correct,arm1,2,arm12,arc
44,4,wing,0.150282842107,left,1,correct,arm1,3,arm13,arc
45,4,holly,0.633644047193,left,1,correct,decision,2,decision2,arc
46,4,match,0.317041475791,right,1,correct,arm2,1,arm21,arc
47,4,baby,0.100330536254,right,1,correct,arm2,2,arm22,arc
48,4,arc,0.183391994797,left,1,correct,arm2,3,arm23,arc
49,5,arc,0.216959973332,space,1,correct,target,NaN,targetNaN,arc
50,5,trophy,0.483717399184,right,1,correct,path,1,path1,arc
51,5,astronaut,0.0835854862817,right,1,correct,path,2,path2,arc
52,5,robot,0.200233940966,right,1,correct,path,3,path3,arc
53,5,watch,0.383586391807,right,1,correct,decision,1,decision1,arc
54,5,clover,0.400254165288,left,1,correct,arm1,1,arm11,arc
55,5,radio,0.116994687356,right,1,correct,arm1,2,arm12,arc
56,5,wing,0.133582468145,left,1,correct,arm1,3,arm13,arc
57,5,holly,0.500273484737,left,1,correct,decision,2,decision2,arc
58,5,match,0.33360661706,right,1,correct,arm2,1,arm21,arc
59,5,baby,0.0835619415157,right,1,correct,arm2,2,arm22,arc
60,5,arc,0.150269560516,left,1,correct,arm2,3,arm23,arc
61,6,arc,0.750457921065,space,1,correct,target,NaN,targetNaN,arc
62,6,trophy,0.283580053132,right,1,correct,path,1,path1,arc
63,6,astronaut,0.0835725064389,right,1,correct,path,2,path2,arc
64,6,robot,0.0836020889692,right,1,correct,path,3,path3,arc
65,6,watch,0.45032963017,left,1,correct,decision,1,decision1,arc
66,6,clover,0.633627143223,left,1,correct,arm1,1,arm11,arc
67,6,radio,0.100236355793,right,1,correct,arm1,2,arm12,arc
68,6,wing,0.133689326234,left,1,correct,arm1,3,arm13,arc
69,6,holly,0.466993479989,left,1,correct,decision,2,decision2,arc
70,6,match,0.283651895821,right,1,correct,arm2,1,arm21,arc
71,6,baby,0.0835779397748,right,1,correct,arm2,2,arm22,arc
72,6,arc,0.116931598634,left,1,correct,arm2,3,arm23,arc
73,7,beaver,0.333632878494,space,1,correct,target,NaN,targetNaN,beaver
74,7,trophy,0.466911072377,right,1,correct,path,1,path1,beaver
75,7,astronaut,0.283599372488,right,1,correct,path,2,path2,beaver
76,7,robot,0.366914694663,right,1,correct,path,3,path3,beaver
77,7,pigeon,0.266950313933,left,1,correct,decision,1,decision1,beaver
78,7,bus,0.46695363475,right,1,correct,arm1,1,arm11,beaver
79,7,deer,0.38362774672,left,1,correct,arm1,2,arm12,beaver
80,7,fist,0.166898092255,left,1,correct,arm1,3,arm13,beaver
81,7,stepladder,0.600428942591,right,1,correct,decision,2,decision2,beaver
82,7,calc,0.450253260322,right,1,correct,arm2,1,arm21,beaver
83,7,tongue,0.750285558868,right,1,correct,arm2,2,arm22,beaver
84,7,beaver,0.950297633652,left,1,correct,arm2,3,arm23,beaver
85,8,beaver,0.36706411466,space,1,correct,target,NaN,targetNaN,beaver
86,8,trophy,0.333586995956,right,1,correct,path,1,path1,beaver
87,8,astronaut,0.116919524036,right,1,correct,path,2,path2,beaver
88,8,robot,0.150060070213,right,1,correct,path,3,path3,beaver
89,8,pigeon,0.283645255025,left,1,correct,decision,1,decision1,beaver
90,8,bus,0.383608729579,right,1,correct,arm1,1,arm11,beaver
91,8,deer,0.450081803836,left,1,correct,arm1,2,arm12,beaver
92,8,fist,0.100236054044,left,1,correct,arm1,3,arm13,beaver
93,8,stepladder,0.633579751011,left,1,correct,decision,2,decision2,beaver
94,8,calc,0.333823653404,right,1,correct,arm2,1,arm21,beaver
95,8,tongue,0.200234846678,right,1,correct,arm2,2,arm22,beaver
96,8,beaver,0.183623822872,left,1,correct,arm2,3,arm23,beaver
97,9,arc,0.316970236599,space,1,correct,target,NaN,targetNaN,arc
98,9,trophy,0.416947295424,right,1,correct,path,1,path1,arc
99,9,astronaut,0.100335064344,right,1,correct,path,2,path2,arc
100,9,robot,0.200240581762,right,1,correct,path,3,path3,arc
101,9,watch,0.400407208595,left,1,correct,decision,1,decision1,arc
102,9,clover,0.516785800457,left,1,correct,arm1,1,arm11,arc
103,9,radio,0.0836863075383,right,1,correct,arm1,2,arm12,arc
104,9,wing,0.116983216722,left,1,correct,arm1,3,arm13,arc
105,9,holly,0.483789241873,left,1,correct,decision,2,decision2,arc
106,9,match,0.233400748577,right,1,correct,arm2,1,arm21,arc
107,9,baby,0.0669243540615,right,1,correct,arm2,2,arm22,arc
108,9,arc,0.133610842749,left,1,correct,arm2,3,arm23,arc
109,10,beaver,0.233751811087,space,1,correct,target,NaN,targetNaN,beaver
110,10,trophy,0.316993177868,right,1,correct,path,1,path1,beaver
111,10,astronaut,0.066905034706,right,1,correct,path,2,path2,beaver
112,10,robot,0.250231224112,right,1,correct,path,3,path3,beaver
113,10,pigeon,0.51753169531,left,1,correct,decision,1,decision1,beaver
114,10,bus,0.450262014288,right,1,correct,arm1,1,arm11,beaver
115,10,deer,0.183574317489,left,1,correct,arm1,2,arm12,beaver
116,10,fist,0.183637104928,left,1,correct,arm1,3,arm13,beaver
117,10,stepladder,0.56690201629,left,1,correct,decision,2,decision2,beaver
118,10,calc,0.266924052034,right,1,correct,arm2,1,arm21,beaver
119,10,tongue,0.166923146695,right,1,correct,arm2,2,arm22,beaver
120,10,beaver,0.133570393547,left,1,correct,arm2,3,arm23,beaver
121,11,beaver,0.43366608303,space,1,correct,target,NaN,targetNaN,beaver
122,11,trophy,0.316975066438,right,1,correct,path,1,path1,beaver
123,11,astronaut,0.117209007498,right,1,correct,path,2,path2,beaver
124,11,robot,0.766959370114,right,1,correct,path,3,path3,beaver
125,11,pigeon,0.300982854329,left,1,correct,decision,1,decision1,beaver
126,11,bus,0.400306689087,right,1,correct,arm1,1,arm11,beaver
127,11,deer,0.48362291744,left,1,correct,arm1,2,arm12,beaver
128,11,fist,0.100286464673,left,1,correct,arm1,3,arm13,beaver
129,11,stepladder,0.600331139751,right,1,correct,decision,2,decision2,beaver
130,11,calc,0.517040268052,right,1,correct,arm2,1,arm21,beaver
131,11,tongue,0.633567676879,right,1,correct,arm2,2,arm22,beaver
132,11,beaver,0.183677553665,left,1,correct,arm2,3,arm23,beaver
133,12,beaver,0.383622011635,space,1,correct,target,NaN,targetNaN,beaver
134,12,trophy,3.11689597927,right,1,correct,path,1,path1,beaver
135,12,astronaut,0.083589410875,right,1,correct,path,2,path2,beaver
136,12,robot,0.20023213001,right,1,correct,path,3,path3,beaver
137,12,pigeon,0.283654914238,left,1,correct,decision,1,decision1,beaver
138,12,bus,0.466942164116,right,1,correct,arm1,1,arm11,beaver
139,12,deer,0.450252958108,left,1,correct,arm1,2,arm12,beaver
140,12,fist,0.0999930570833,left,1,correct,arm1,3,arm13,beaver
141,12,stepladder,0.683621407952,right,1,correct,decision,2,decision2,beaver
142,12,calc,0.783591825515,right,1,correct,arm2,1,arm21,beaver
143,12,tongue,0.583420972805,right,1,correct,arm2,2,arm22,beaver
144,12,beaver,0.300246921368,left,1,correct,arm2,3,arm23,beaver
145,13,beaver,1.93365823478,space,1,correct,target,NaN,targetNaN,beaver
146,13,trophy,0.550391209777,right,1,correct,path,1,path1,beaver
147,13,astronaut,0.100237563252,right,1,correct,path,2,path2,beaver
148,13,robot,0.417027891614,right,1,correct,path,3,path3,beaver
149,13,pigeon,0.483640726656,left,1,correct,decision,1,decision1,beaver
150,13,bus,0.366923146881,right,1,correct,arm1,1,arm11,beaver
151,13,deer,0.533897307701,left,1,correct,arm1,2,arm12,beaver
152,13,fist,0.10022337595,left,1,correct,arm1,3,arm13,beaver
153,13,stepladder,2.23360782443,left,1,correct,decision,2,decision2,beaver
154,13,calc,0.316916807555,right,1,correct,arm2,1,arm21,beaver
155,13,tongue,0.10024148738,right,1,correct,arm2,2,arm22,beaver
156,13,beaver,0.133563148789,left,1,correct,arm2,3,arm23,beaver
157,14,beaver,0.300295821857,space,1,correct,target,NaN,targetNaN,beaver
158,14,trophy,0.350234846584,right,1,correct,path,1,path1,beaver
159,14,astronaut,0.0835637529381,right,1,correct,path,2,path2,beaver
160,14,robot,0.150015696883,right,1,correct,path,3,path3,beaver
161,14,pigeon,0.900300652254,right,1,correct,decision,1,decision1,beaver
162,14,bus,0.666847379878,right,1,correct,arm1,1,arm11,beaver
163,14,deer,0.333566771355,left,1,correct,arm1,2,arm12,beaver
164,14,fist,0.116915901657,left,1,correct,arm1,3,arm13,beaver
165,14,stepladder,0.500274389982,right,1,correct,decision,2,decision2,beaver
166,14,calc,0.333606013097,right,1,correct,arm2,1,arm21,beaver
167,14,tongue,0.483891270123,right,1,correct,arm2,2,arm22,beaver
168,14,beaver,0.167181840166,left,1,correct,arm2,3,arm23,beaver
169,15,arc,0.266997706145,space,1,correct,target,NaN,targetNaN,arc
170,15,trophy,0.200249335729,right,1,correct,path,1,path1,arc
171,15,astronaut,0.083563149441,right,1,correct,path,2,path2,arc
172,15,robot,0.0837448686361,right,1,correct,path,3,path3,arc
173,15,watch,0.38359725941,left,1,correct,decision,1,decision1,arc
174,15,clover,0.466956351418,left,1,correct,arm1,1,arm11,arc
175,15,radio,0.0669319001026,right,1,correct,arm1,2,arm12,arc
176,15,wing,0.0835948442109,left,1,correct,arm1,3,arm13,arc
177,15,holly,0.750338686164,right,1,correct,decision,2,decision2,arc
178,15,match,0.350246317219,right,1,correct,arm2,1,arm21,arc
179,15,baby,0.0839362470433,right,1,correct,arm2,2,arm22,arc
180,15,arc,0.150302463211,left,1,correct,arm2,3,arm23,arc
181,16,arc,0.183645858429,space,-1,miss,target,NaN,targetNaN,arc
182,16,trophy,0.400244506076,right,-1,miss,path,1,path1,arc
183,16,astronaut,0.0836851000786,right,-1,miss,path,2,path2,arc
184,16,robot,0.0502553731203,right,-1,miss,path,3,path3,arc
185,16,pigeon,2.46734273154,left,-1,miss,decision,1,decision1,arc
186,16,bus,0.35024722293,right,-1,miss,arm1,1,arm11,arc
187,16,deer,0.600281030871,left,-1,miss,arm1,2,arm12,arc
188,16,fist,0.100266844034,left,-1,miss,arm1,3,arm13,arc
189,16,stepladder,0.650284050032,left,-1,miss,decision,2,decision2,arc
190,16,calc,0.316911374219,right,-1,miss,arm2,1,arm21,arc
191,16,tongue,0.583580052946,right,-1,miss,arm2,2,arm22,arc
192,16,beaver,0.183924474753,left,-1,miss,arm2,3,arm23,arc
193,17,arc,0.433631368913,space,1,correct,target,NaN,targetNaN,arc
194,17,trophy,0.366911374032,right,1,correct,path,1,path1,arc
195,17,astronaut,0.116918920539,right,1,correct,path,2,path2,arc
196,17,robot,0.116889640223,right,1,correct,path,3,path3,arc
197,17,watch,2.01689477172,left,1,correct,decision,1,decision1,arc
198,17,clover,0.666919222567,left,1,correct,arm1,1,arm11,arc
199,17,radio,0.10037672054,right,1,correct,arm1,2,arm12,arc
200,17,wing,0.100277408957,left,1,correct,arm1,3,arm13,arc
201,17,holly,0.583691439126,left,1,correct,decision,2,decision2,arc
202,17,match,0.316943975165,right,1,correct,arm2,1,arm21,arc
203,17,baby,0.10029159626,right,1,correct,arm2,2,arm22,arc
204,17,arc,0.133665479254,left,1,correct,arm2,3,arm23,arc
205,18,arc,0.43406393379,space,1,correct,target,NaN,targetNaN,arc
206,18,trophy,0.250262315851,right,1,correct,path,1,path1,arc
207,18,astronaut,0.100246920716,right,1,correct,path,2,path2,arc
208,18,robot,0.10024722293,right,1,correct,path,3,path3,arc
209,18,watch,0.48358397698,left,1,correct,decision,1,decision1,arc
210,18,clover,0.416977480985,left,1,correct,arm1,1,arm11,arc
211,18,radio,0.0837469813414,right,1,correct,arm1,2,arm12,arc
212,18,wing,0.0669343154877,left,1,correct,arm1,3,arm13,arc
213,18,holly,0.500328121241,right,1,correct,decision,2,decision2,arc
214,18,match,0.366989555769,right,1,correct,arm2,1,arm21,arc
215,18,baby,0.100293709431,right,1,correct,arm2,2,arm22,arc
216,18,arc,0.11695725657,left,1,correct,arm2,3,arm23,arc
217,19,beaver,0.383646462113,space,1,correct,target,NaN,targetNaN,beaver
218,19,trophy,0.333629860077,right,1,correct,path,1,path1,beaver
219,19,astronaut,0.0835942407139,right,1,correct,path,2,path2,beaver
220,19,robot,0.066904431209,right,1,correct,path,3,path3,beaver
221,19,pigeon,0.250868147705,right,1,correct,decision,1,decision1,beaver
222,19,bus,0.55027016392,right,1,correct,arm1,1,arm11,beaver
223,19,deer,0.200271975249,left,1,correct,arm1,2,arm12,beaver
224,19,fist,0.116925259586,left,1,correct,arm1,3,arm13,beaver
225,19,stepladder,0.600292501971,left,1,correct,decision,2,decision2,beaver
226,19,calc,0.400329026859,right,1,correct,arm2,1,arm21,beaver
227,19,tongue,0.317067435477,right,1,correct,arm2,2,arm22,beaver
228,19,beaver,0.133412823081,left,1,correct,arm2,3,arm23,beaver
229,20,arc,3.10028736992,space,1,correct,target,NaN,targetNaN,arc
230,20,trophy,1.8169177128,right,1,correct,path,1,path1,arc
231,20,astronaut,0.0669472953305,right,1,correct,path,2,path2,arc
232,20,robot,0.25030095363,right,1,correct,path,3,path3,arc
233,20,watch,0.600318159908,right,1,correct,decision,1,decision1,arc
234,20,clover,0.650276805274,left,1,correct,arm1,1,arm11,arc
235,20,radio,0.0668974886648,right,1,correct,arm1,2,arm12,arc
236,20,wing,0.0836917408742,left,1,correct,arm1,3,arm13,arc
237,20,holly,0.950295822229,left,1,correct,decision,2,decision2,arc
238,20,match,0.366957558319,right,1,correct,arm2,1,arm21,arc
239,20,baby,0.0668908478692,right,1,correct,arm2,2,arm22,arc
240,20,arc,0.0835664691404,left,1,correct,arm2,3,arm23,arc
