pic_index,trial_num,pic_name,rt,resp,feedback_code,feedback,segment,segment_index,pic_type,trial_target
1,1,bolt,0.683599372394,space,-1,miss,target,NaN,targetNaN,bolt
2,1,coffeepot,1.40025024163,left,-1,miss,path,1,path1,bolt
3,1,mosquito,0.250059768092,left,-1,miss,path,2,path2,bolt
4,1,canoe,0.233583373483,right,-1,miss,path,3,path3,bolt
5,1,domino,0.7170354384,right,-1,miss,decision,1,decision1,bolt
6,1,ambulance,0.533722530585,right,-1,miss,arm1,1,arm11,bolt
7,1,trunk,0.55027710693,left,-1,miss,arm1,2,arm12,bolt
8,1,peach,0.116891753394,left,-1,miss,arm1,3,arm13,bolt
9,1,crutches,1.55030065216,right,-1,miss,decision,2,decision2,bolt
10,1,stapler,0.650251449086,right,-1,miss,arm2,1,arm21,bolt
11,1,rose,0.300195001531,right,-1,miss,arm2,2,arm22,bolt
12,1,lion,2.80028857756,left,-1,miss,arm2,3,arm23,bolt
13,2,bolt,0.233619898558,space,1,correct,target,NaN,targetNaN,bolt
14,2,coffeepot,0.533641028684,left,1,correct,path,1,path1,bolt
15,2,mosquito,0.166934315581,left,1,correct,path,2,path2,bolt
16,2,canoe,0.183772639837,right,1,correct,path,3,path3,bolt
17,2,domino,1.0336769498,right,1,correct,decision,1,decision1,bolt
18,2,ambulance,0.467006761581,right,1,correct,arm1,1,arm11,bolt
19,2,trunk,0.21691831667,left,1,correct,arm1,2,arm12,bolt
20,2,peach,0.100264428649,left,1,correct,arm1,3,arm13,bolt
21,2,garlic,1.73362050205,left,1,correct,decision,2,decision2,bolt
22,2,mug,0.283626539633,right,1,correct,arm2,1,arm21,bolt
23,2,branch,0.333594844211,left,1,correct,arm2,2,arm22,bolt
24,2,bolt,0.0669029220007,right,1,correct,arm2,3,arm23,bolt
25,3,lion,0.483653706964,space,1,correct,target,NaN,targetNaN,lion
26,3,coffeepot,0.633597560693,left,1,correct,path,1,path1,lion
27,3,mosquito,0.133667592425,left,1,correct,path,2,path2,lion
28,3,canoe,0.150232431479,right,1,correct,path,3,path3,lion
29,3,goose,0.550233035814,left,1,correct,decision,1,decision1,lion
30,3,sailor,0.533712870907,left,1,correct,arm1,1,arm11,lion
31,3,cooker,0.100244204514,right,1,correct,arm1,2,arm12,lion
32,3,tooth,0.150315745268,left,1,correct,arm1,3,arm13,lion
33,3,crutches,0.566886319779,right,1,correct,decision,2,decision2,lion
34,3,stapler,0.416793045122,right,1,correct,arm2,1,arm21,lion
35,3,rose,0.0670112897642,right,1,correct,arm2,2,arm22,lion
36,3,lion,0.0836343877017,left,1,correct,arm2,3,arm23,lion
37,4,bolt,0.234216372948,space,1,correct,target,NaN,targetNaN,bolt
38,4,coffeepot,0.900285257027,left,1,correct,path,1,path1,bolt
39,4,mosquito,0.0671374667436,left,1,correct,path,2,path2,bolt
40,4,canoe,0.100229413249,right,1,correct,path,3,path3,bolt
41,4,domino,0.533635595348,right,1,correct,decision,1,decision1,bolt
42,4,ambulance,0.400294312742,right,1,correct,arm1,1,arm11,bolt
43,4,trunk,0.183254648466,left,1,correct,arm1,2,arm12,bolt
44,4,peach,0.0669424654916,left,1,correct,arm1,3,arm13,bolt
45,4,garlic,0.850294011179,right,1,correct,decision,2,decision2,bolt
46,4,mug,0.283609333914,right,1,correct,arm2,1,arm21,bolt
47,4,branch,0.133578241803,left,1,correct,arm2,2,arm22,bolt
48,4,bolt,0.0336310672574,right,1,correct,arm2,3,arm23,bolt
49,5,lion,0.233703211416,space,1,correct,target,NaN,targetNaN,lion
50,5,coffeepot,0.783604503609,left,1,correct,path,1,path1,lion
51,5,mosquito,0.0669898577034,left,1,correct,path,2,path2,lion
52,5,canoe,0.0671151289716,right,1,correct,path,3,path3,lion
53,5,goose,0.433804334607,right,1,correct,decision,1,decision1,lion
54,5,sailor,0.46711482713,left,1,correct,arm1,1,arm11,lion
55,5,cooker,0.0836446513422,right,1,correct,arm1,2,arm12,lion
56,5,tooth,0.116910468321,left,1,correct,arm1,3,arm13,lion
57,5,crutches,0.683659140486,right,1,correct,decision,2,decision2,lion
58,5,stapler,0.383660347667,right,1,correct,arm2,1,arm21,lion
59,5,rose,0.083581562154,right,1,correct,arm2,2,arm22,lion
60,5,lion,0.0836395192891,left,1,correct,arm2,3,arm23,lion
61,6,lion,0.166963595897,space,1,correct,target,NaN,targetNaN,lion
62,6,coffeepot,0.666928580031,left,1,correct,path,1,path1,lion
63,6,mosquito,0.0502852573991,left,1,correct,path,2,path2,lion
64,6,canoe,0.066921335645,right,1,correct,path,3,path3,lion
65,6,goose,0.350620924961,right,1,correct,decision,1,decision1,lion
66,6,sailor,0.43360027764,left,1,correct,arm1,1,arm11,lion
67,6,cooker,0.0670179305598,right,1,correct,arm1,2,arm12,lion
68,6,tooth,0.0836473680101,left,1,correct,arm1,3,arm13,lion
69,6,crutches,0.600362532772,right,1,correct,decision,2,decision2,lion
70,6,stapler,0.333632576745,right,1,correct,arm2,1,arm21,lion
71,6,rose,0.0667667831294,right,1,correct,arm2,2,arm22,lion
72,6,lion,0.0667885174043,left,1,correct,arm2,3,arm23,lion
73,7,bolt,0.36700042244,space,1,correct,target,NaN,targetNaN,bolt
74,7,coffeepot,0.483741547912,left,1,correct,path,1,path1,bolt
75,7,mosquito,0.0502113015391,left,1,correct,path,2,path2,bolt
76,7,canoe,0.0836265394464,right,1,correct,path,3,path3,bolt
77,7,domino,0.483645858709,right,1,correct,decision,1,decision1,bolt
78,7,ambulance,0.383623219095,right,1,correct,arm1,1,arm11,bolt
79,7,trunk,0.183745472226,left,1,correct,arm1,2,arm12,bolt
80,7,peach,0.0669696331024,left,1,correct,arm1,3,arm13,bolt
81,7,garlic,0.733601787128,right,1,correct,decision,2,decision2,bolt
82,7,mug,0.366914694197,right,1,correct,arm2,1,arm21,bolt
83,7,branch,0.116918316577,left,1,correct,arm2,2,arm22,bolt
84,7,bolt,0.000452185515314,right,1,correct,arm2,3,arm23,bolt
85,8,lion,0.616902318317,space,1,correct,target,NaN,targetNaN,lion
86,8,coffeepot,0.716990763322,left,1,correct,path,1,path1,lion
87,8,mosquito,0.100239072461,left,1,correct,path,2,path2,lion
88,8,canoe,0.0670490218326,right,1,correct,path,3,path3,lion
89,8,goose,0.400488710497,right,1,correct,decision,1,decision1,lion
90,8,sailor,0.433603598271,left,1,correct,arm1,1,arm11,lion
91,8,cooker,0.0503015574068,right,1,correct,arm1,2,arm12,lion
92,8,tooth,0.0835459427908,left,1,correct,arm1,3,arm13,lion
93,8,crutches,1.10028586118,left,1,correct,decision,2,decision2,lion
94,8,stapler,0.483695363626,right,1,correct,arm2,1,arm21,lion
95,8,rose,0.0835812608711,right,1,correct,arm2,2,arm22,lion
96,8,lion,0.333539301995,left,1,correct,arm2,3,arm23,lion
97,9,lion,0.367013402749,space,1,correct,target,NaN,targetNaN,lion
98,9,coffeepot,0.233569789678,left,1,correct,path,1,path1,lion
99,9,mosquito,0.083620804362,left,1,correct,path,2,path2,lion
100,9,canoe,0.13354715053,right,1,correct,path,3,path3,lion
101,9,goose,0.416935220826,left,1,correct,decision,1,decision1,lion
102,9,sailor,0.383625935763,left,1,correct,arm1,1,arm11,lion
103,9,cooker,0.0668893381953,right,1,correct,arm1,2,arm12,lion
104,9,tooth,0.0668836031109,left,1,correct,arm1,3,arm13,lion
105,9,crutches,0.616876358166,left,1,correct,decision,2,decision2,lion
106,9,stapler,0.450293709524,right,1,correct,arm2,1,arm21,lion
107,9,rose,0.0502499393187,right,1,correct,arm2,2,arm22,lion
108,9,lion,0.0835522823036,left,1,correct,arm2,3,arm23,lion
109,10,bolt,0.46697959397,space,1,correct,target,NaN,targetNaN,bolt
110,10,coffeepot,0.250230620615,left,1,correct,path,1,path1,bolt
111,10,mosquito,0.0669068461284,left,1,correct,path,2,path2,bolt
112,10,canoe,0.100594059099,right,1,correct,path,3,path3,bolt
113,10,domino,0.650286464952,left,1,correct,decision,1,decision1,bolt
114,10,ambulance,0.4669364281,right,1,correct,arm1,1,arm11,bolt
115,10,trunk,0.16691288352,left,1,correct,arm1,2,arm12,bolt
116,10,peach,0.0835758270696,left,1,correct,arm1,3,arm13,bolt
117,10,garlic,2.00071268994,right,1,correct,decision,2,decision2,bolt
118,10,mug,0.63356646942,right,1,correct,arm2,1,arm21,bolt
119,10,branch,0.116897790227,left,1,correct,arm2,2,arm22,bolt
120,10,bolt,1.55026442884,right,1,correct,arm2,3,arm23,bolt
121,11,bolt,0.250297331717,space,1,correct,target,NaN,targetNaN,bolt
122,11,coffeepot,0.38356646942,left,1,correct,path,1,path1,bolt
123,11,mosquito,0.0667598405853,left,1,correct,path,2,path2,bolt
124,11,canoe,0.0835335664451,right,1,correct,path,3,path3,bolt
125,11,domino,0.500320272986,right,1,correct,decision,1,decision1,bolt
126,11,ambulance,0.533523605671,right,1,correct,arm1,1,arm11,bolt
127,11,trunk,0.30034411978,left,1,correct,arm1,2,arm12,bolt
128,11,peach,0.200047995429,left,1,correct,arm1,3,arm13,bolt
129,11,garlic,1.85032872483,left,1,correct,decision,2,decision2,bolt
130,11,mug,0.384503440931,right,1,correct,arm2,1,arm21,bolt
131,11,branch,0.133710154332,left,1,correct,arm2,2,arm22,bolt
132,11,bolt,0.0836102389731,right,1,correct,arm2,3,arm23,bolt
133,12,bolt,0.283617785666,space,1,correct,target,NaN,targetNaN,bolt
134,12,coffeepot,0.166927976534,left,1,correct,path,1,path1,bolt
135,12,mosquito,0.133563752752,left,1,correct,path,2,path2,bolt
136,12,canoe,0.0669041294605,right,1,correct,path,3,path3,bolt
137,12,domino,0.333789241966,left,1,correct,decision,1,decision1,bolt
138,12,ambulance,0.383631067351,right,1,correct,arm1,1,arm11,bolt
139,12,trunk,0.316894771997,left,1,correct,arm1,2,arm12,bolt
140,12,peach,0.217006761581,left,1,correct,arm1,3,arm13,bolt
141,12,garlic,1.26670610998,left,1,correct,decision,2,decision2,bolt
142,12,mug,0.283832709305,right,1,correct,arm2,1,arm21,bolt
143,12,branch,0.133940473665,left,1,correct,arm2,2,arm22,bolt
144,12,bolt,0.0669174115174,right,1,correct,arm2,3,arm23,bolt
145,13,lion,0.250266843941,space,1,correct,target,NaN,targetNaN,lion
146,13,coffeepot,0.183354564011,left,1,correct,path,1,path1,lion
147,13,mosquito,0.0835948442109,left,1,correct,path,2,path2,lion
148,13,canoe,0.0669355224818,right,1,correct,path,3,path3,lion
149,13,goose,0.516964501236,left,1,correct,decision,1,decision1,lion
150,13,sailor,1.50022730045,left,1,correct,arm1,1,arm11,lion
151,13,cooker,0.167196631432,right,1,correct,arm1,2,arm12,lion
152,13,tooth,0.116923146416,left,1,correct,arm1,3,arm13,lion
153,13,crutches,0.68378320476,left,1,correct,decision,2,decision2,lion
154,13,stapler,0.350293709431,right,1,correct,arm2,1,arm21,lion
155,13,rose,0.0666946391575,right,1,correct,arm2,2,arm22,lion
156,13,lion,0.100299444515,left,1,correct,arm2,3,arm23,lion
157,14,lion,0.300317254383,space,1,correct,target,NaN,targetNaN,lion
158,14,coffeepot,0.183733398095,left,1,correct,path,1,path1,lion
159,14,mosquito,0.0669699348509,left,1,correct,path,2,path2,lion
160,14,canoe,0.116974161007,right,1,correct,path,3,path3,lion
161,14,goose,0.433584882878,right,1,correct,decision,1,decision1,lion
162,14,sailor,0.350255071186,left,1,correct,arm1,1,arm11,lion
163,14,cooker,0.0835918253288,right,1,correct,arm1,2,arm12,lion
164,14,tooth,0.11696540704,left,1,correct,arm1,3,arm13,lion
165,14,crutches,0.566760746296,left,1,correct,decision,2,decision2,lion
166,14,stapler,0.316941861995,right,1,correct,arm2,1,arm21,lion
167,14,rose,0.066901714541,right,1,correct,arm2,2,arm22,lion
168,14,lion,0.100297029596,left,1,correct,arm2,3,arm23,lion
169,15,lion,0.200303066988,space,1,correct,target,NaN,targetNaN,lion
170,15,coffeepot,0.166897186544,left,1,correct,path,1,path1,lion
171,15,mosquito,0.0837406422943,left,1,correct,path,2,path2,lion
172,15,canoe,0.0835891086608,right,1,correct,path,3,path3,lion
173,15,goose,0.316947898827,left,1,correct,decision,1,decision1,lion
174,15,sailor,0.983728869818,left,1,correct,arm1,1,arm11,lion
175,15,cooker,0.100514066871,right,1,correct,arm1,2,arm12,lion
176,15,tooth,0.100258090068,left,1,correct,arm1,3,arm13,lion
177,15,crutches,0.550308499951,right,1,correct,decision,2,decision2,lion
178,15,stapler,0.56698593311,right,1,correct,arm2,1,arm21,lion
179,15,rose,0.0835954481736,right,1,correct,arm2,2,arm22,lion
180,15,lion,0.166920731775,left,1,correct,arm2,3,arm23,lion
181,16,bolt,0.233615069184,space,1,correct,target,NaN,targetNaN,bolt
182,16,coffeepot,0.166896884795,left,1,correct,path,1,path1,bolt
183,16,mosquito,0.100273786578,left,1,correct,path,2,path2,bolt
184,16,canoe,0.116886621341,right,1,correct,path,3,path3,bolt
185,16,domino,0.416939748917,right,1,correct,decision,1,decision1,bolt
186,16,ambulance,0.400305783376,right,1,correct,arm1,1,arm11,bolt
187,16,trunk,0.16691861907,left,1,correct,arm1,2,arm12,bolt
188,16,peach,0.0836727241985,left,1,correct,arm1,3,arm13,bolt
189,16,garlic,0.650288275909,left,1,correct,decision,2,decision2,bolt
190,16,mug,0.316912581678,right,1,correct,arm2,1,arm21,bolt
191,16,branch,0.133357582614,left,1,correct,arm2,2,arm22,bolt
192,16,bolt,0.066902318038,right,1,correct,arm2,3,arm23,bolt
193,17,bolt,0.216979896184,space,1,correct,target,NaN,targetNaN,bolt
194,17,coffeepot,0.166875150986,left,1,correct,path,1,path1,bolt
195,17,mosquito,0.0836736294441,left,1,correct,path,2,path2,bolt
196,17,canoe,0.133586694021,right,1,correct,path,3,path3,bolt
197,17,domino,0.483589109033,left,1,correct,decision,1,decision1,bolt
198,17,ambulance,0.500310009811,right,1,correct,arm1,1,arm11,bolt
199,17,trunk,0.116948502604,left,1,correct,arm1,2,arm12,bolt
200,17,peach,0.117792803794,left,1,correct,arm1,3,arm13,bolt
201,17,garlic,0.633348828647,left,1,correct,decision,2,decision2,bolt
202,17,mug,0.233627746813,right,1,correct,arm2,1,arm21,bolt
203,17,branch,0.116928881966,left,1,correct,arm2,2,arm22,bolt
204,17,bolt,0.0836235205643,right,1,correct,arm2,3,arm23,bolt
205,18,bolt,0.183700494934,space,1,correct,target,NaN,targetNaN,bolt
206,18,coffeepot,0.183571299538,left,1,correct,path,1,path1,bolt
207,18,mosquito,0.100277106743,left,1,correct,path,2,path2,bolt
208,18,canoe,0.100230318494,right,1,correct,path,3,path3,bolt
209,18,domino,0.36693461705,left,1,correct,decision,1,decision1,bolt
210,18,ambulance,0.517142296303,right,1,correct,arm1,1,arm11,bolt
211,18,trunk,0.100235450547,left,1,correct,arm1,2,arm12,bolt
212,18,peach,0.100251751021,left,1,correct,arm1,3,arm13,bolt
213,18,garlic,0.516994083766,left,1,correct,decision,2,decision2,bolt
214,18,mug,0.366967519745,right,1,correct,arm2,1,arm21,bolt
215,18,branch,0.0835658656433,left,1,correct,arm2,2,arm22,bolt
216,18,bolt,0.0835869954899,right,1,correct,arm2,3,arm23,bolt
217,19,lion,0.216998611111,space,1,correct,target,NaN,targetNaN,lion
218,19,coffeepot,0.316905940417,left,1,correct,path,1,path1,lion
219,19,mosquito,0.0670330235735,left,1,correct,path,2,path2,lion
220,19,canoe,0.100232733414,right,1,correct,path,3,path3,lion
221,19,goose,0.283577034716,right,1,correct,decision,1,decision1,lion
222,19,sailor,0.483612352051,left,1,correct,arm1,1,arm11,lion
223,19,cooker,0.100249336101,right,1,correct,arm1,2,arm12,lion
224,19,tooth,0.0502333375625,left,1,correct,arm1,3,arm13,lion
225,19,crutches,0.516960878856,left,1,correct,decision,2,decision2,lion
226,19,stapler,0.33358458057,right,1,correct,arm2,1,arm21,lion
227,19,rose,0.0669035254978,right,1,correct,arm2,2,arm22,lion
228,19,lion,0.0836081262678,left,1,correct,arm2,3,arm23,lion
229,20,lion,0.233747283462,space,1,correct,target,NaN,targetNaN,lion
230,20,coffeepot,0.133612352423,left,1,correct,path,1,path1,lion
231,20,mosquito,0.083624124527,left,1,correct,path,2,path2,lion
232,20,canoe,0.0835752235726,right,1,correct,path,3,path3,lion
233,20,goose,0.400736839045,left,1,correct,decision,1,decision1,lion
234,20,sailor,0.417180632707,left,1,correct,arm1,1,arm11,lion
235,20,cooker,0.0839169286191,right,1,correct,arm1,2,arm12,lion
236,20,tooth,0.0668941680342,left,1,correct,arm1,3,arm13,lion
237,20,crutches,0.700265032705,right,1,correct,decision,2,decision2,lion
238,20,stapler,0.51702155266,right,1,correct,arm2,1,arm21,lion
239,20,rose,0.0502339410596,right,1,correct,arm2,2,arm22,lion
240,20,lion,0.100344421342,left,1,correct,arm2,3,arm23,lion
