pic_index,trial_num,pic_name,rt,resp,feedback_code,feedback,segment,segment_index,pic_type,trial_target
1,1,lion,0.750365928571,space,0,wrong,target,NaN,targetNaN,lion
2,1,coffeepot,19.8832644843,right,0,wrong,path,1,path1,lion
3,1,mosquito,0.114078250908,left,0,wrong,path,2,path2,lion
4,1,canoe,6.1838010387,right,0,wrong,path,3,path3,lion
5,1,domino,5.40027921957,left,0,wrong,decision,1,decision1,lion
6,1,ambulance,2.36691987606,right,0,wrong,arm1,1,arm11,lion
7,1,trunk,4.20021281059,left,0,wrong,arm1,2,arm12,lion
8,1,peach,1.38359335971,left,0,wrong,arm1,3,arm13,lion
9,1,crutches,3.61682230014,right,0,wrong,decision,2,decision2,lion
10,1,stapler,2.10027363518,right,0,wrong,arm2,1,arm21,lion
11,1,rose,3.45023658199,right,0,wrong,arm2,2,arm22,lion
12,1,lion,2.78356739983,left,0,wrong,arm2,3,arm23,lion
13,2,bolt,2.01694364745,space,-1,miss,target,NaN,targetNaN,bolt
14,2,coffeepot,2.06708393642,right,-1,miss,path,1,path1,bolt
15,2,mosquito,2.05023326154,left,-1,miss,path,2,path2,bolt
16,2,canoe,3.06703805385,right,-1,miss,path,3,path3,bolt
17,2,domino,1.55011991349,left,-1,miss,decision,1,decision1,bolt
18,2,ambulance,3.60041294311,right,-1,miss,arm1,1,arm11,bolt
19,2,trunk,2.91687829498,left,-1,miss,arm1,2,arm12,bolt
20,2,peach,2.10002218664,left,-1,miss,arm1,3,arm13,bolt
21,2,crutches,1.23357607828,right,-1,miss,decision,2,decision2,bolt
22,2,stapler,2.650377852,right,-1,miss,arm2,1,arm21,bolt
23,2,rose,2.18357253143,right,-1,miss,arm2,2,arm22,bolt
24,2,lion,0.800258089444,left,-1,miss,arm2,3,arm23,bolt
25,3,bolt,1.55039611447,space,-1,miss,target,NaN,targetNaN,bolt
26,3,coffeepot,1.91691723479,right,-1,miss,path,1,path1,bolt
27,3,mosquito,5.58357766304,left,-1,miss,path,2,path2,bolt
28,3,canoe,2.78338900116,right,-1,miss,path,3,path3,bolt
29,3,domino,2.95023009202,right,-1,miss,decision,1,decision1,bolt
30,3,ambulance,1.18355321246,right,-1,miss,arm1,1,arm11,bolt
31,3,trunk,0.933591322158,left,-1,miss,arm1,2,arm12,bolt
32,3,peach,0.666987945261,left,-1,miss,arm1,3,arm13,bolt
33,3,crutches,1.11692568684,left,-1,miss,decision,2,decision2,bolt
34,3,stapler,6.36685075035,right,-1,miss,arm2,1,arm21,bolt
35,3,rose,0.683617961214,right,-1,miss,arm2,2,arm22,bolt
36,3,lion,0.466930290192,left,-1,miss,arm2,3,arm23,bolt
37,4,bolt,2.43361109392,space,0,wrong,target,NaN,targetNaN,bolt
38,4,coffeepot,1.75022646971,right,0,wrong,path,1,path1,bolt
39,4,mosquito,1.23363826123,left,0,wrong,path,2,path2,bolt
40,4,canoe,1.16694191176,right,0,wrong,path,3,path3,bolt
41,4,goose,6.76681422541,right,0,wrong,decision,1,decision1,bolt
42,4,sailor,10.9501008964,left,0,wrong,arm1,1,arm11,bolt
43,4,cooker,1.06699518988,right,0,wrong,arm1,2,arm12,bolt
44,4,tooth,0.766955495418,left,0,wrong,arm1,3,arm13,bolt
45,4,garlic,2.16691685747,left,0,wrong,decision,2,decision2,bolt
46,4,mug,4.06687987974,right,0,wrong,arm2,1,arm21,bolt
47,4,branch,1.75024850542,left,0,wrong,arm2,2,arm22,bolt
48,4,bolt,1.25024080802,right,0,wrong,arm2,3,arm23,bolt
49,5,lion,1.11696734338,space,-1,miss,target,NaN,targetNaN,lion
50,5,coffeepot,1.3002455623,right,-1,miss,path,1,path1,lion
51,5,mosquito,2.71687316338,left,-1,miss,path,2,path2,lion
52,5,canoe,0.366700122706,right,-1,miss,path,3,path3,lion
53,5,domino,1.68357871954,right,-1,miss,decision,1,decision1,lion
54,5,ambulance,1.25080951037,right,-1,miss,arm1,1,arm11,lion
55,5,trunk,0.483592303199,left,-1,miss,arm1,2,arm12,lion
56,5,peach,0.400243902071,left,-1,miss,arm1,3,arm13,lion
57,5,garlic,2.23355464629,right,-1,miss,decision,2,decision2,lion
58,5,mug,1.41702001778,right,-1,miss,arm2,1,arm21,lion
59,5,branch,1.26688863365,left,-1,miss,arm2,2,arm22,lion
60,5,bolt,0.900303821082,right,-1,miss,arm2,3,arm23,lion
61,6,lion,1.56693859131,space,-1,miss,target,NaN,targetNaN,lion
62,6,coffeepot,7.03361139578,right,-1,miss,path,1,path1,lion
63,6,mosquito,1.56683233695,left,-1,miss,path,2,path2,lion
64,6,canoe,0.583588228103,right,-1,miss,path,3,path3,lion
65,6,goose,1.68368648321,right,-1,miss,decision,1,decision1,lion
66,6,sailor,2.91687950242,left,-1,miss,arm1,1,arm11,lion
67,6,cooker,0.5835830965,right,-1,miss,arm1,2,arm12,lion
68,6,tooth,0.483357155039,left,-1,miss,arm1,3,arm13,lion
69,6,garlic,1.43385076997,right,-1,miss,decision,2,decision2,lion
70,6,mug,0.850967080767,right,-1,miss,arm2,1,arm21,lion
71,6,branch,0.616969305468,left,-1,miss,arm2,2,arm22,lion
72,6,bolt,0.433604151165,right,-1,miss,arm2,3,arm23,lion
73,7,bolt,2.5836265642,space,-1,miss,target,NaN,targetNaN,bolt
74,7,coffeepot,3.61690470764,right,-1,miss,path,1,path1,bolt
75,7,mosquito,0.566911725864,left,-1,miss,path,2,path2,bolt
76,7,canoe,0.383560155216,right,-1,miss,path,3,path3,bolt
77,7,domino,2.30030050063,right,-1,miss,decision,1,decision1,bolt
78,7,ambulance,1.11690274556,right,-1,miss,arm1,1,arm11,bolt
79,7,trunk,0.516908782738,left,-1,miss,arm1,2,arm12,bolt
80,7,peach,0.416904405783,left,-1,miss,arm1,3,arm13,bolt
81,7,crutches,2.51690848088,left,-1,miss,decision,2,decision2,bolt
82,7,stapler,1.65020971654,right,-1,miss,arm2,1,arm21,bolt
83,7,rose,0.900253712488,right,-1,miss,arm2,2,arm22,bolt
84,7,lion,0.450234770836,left,-1,miss,arm2,3,arm23,bolt
85,8,bolt,1.3171439309,space,-1,miss,target,NaN,targetNaN,bolt
86,8,coffeepot,1.08357932326,right,-1,miss,path,1,path1,bolt
87,8,mosquito,0.250413169505,left,-1,miss,path,2,path2,bolt
88,8,canoe,0.250253184235,right,-1,miss,path,3,path3,bolt
89,8,goose,1.10047588071,right,-1,miss,decision,1,decision1,bolt
90,8,sailor,1.46691127308,left,-1,miss,arm1,1,arm11,bolt
91,8,cooker,3.46688953923,right,-1,miss,arm1,2,arm12,bolt
92,8,tooth,0.466938440385,left,-1,miss,arm1,3,arm13,bolt
93,8,crutches,1.21700613227,left,-1,miss,decision,2,decision2,bolt
94,8,stapler,1.38356679611,right,-1,miss,arm2,1,arm21,bolt
95,8,rose,0.416927648926,right,-1,miss,arm2,2,arm22,bolt
96,8,lion,0.483598642238,left,-1,miss,arm2,3,arm23,bolt
97,9,lion,2.31694470396,space,1,correct,target,NaN,targetNaN,lion
98,9,coffeepot,2.18352664887,right,1,correct,path,1,path1,lion
99,9,mosquito,0.466913687947,left,1,correct,path,2,path2,lion
100,9,canoe,0.216918895015,right,1,correct,path,3,path3,lion
101,9,goose,1.96695308055,right,1,correct,decision,1,decision1,lion
102,9,sailor,1.66711110373,left,1,correct,arm1,1,arm11,lion
103,9,cooker,0.450257108402,right,1,correct,arm1,2,arm12,lion
104,9,tooth,0.217497860574,left,1,correct,arm1,3,arm13,lion
105,9,crutches,3.00003078962,left,1,correct,decision,2,decision2,lion
106,9,stapler,0.783592755988,right,1,correct,arm2,1,arm21,lion
107,9,rose,0.766936176443,right,1,correct,arm2,2,arm22,lion
108,9,lion,0.216921309887,left,1,correct,arm2,3,arm23,lion
109,10,lion,1.43363735565,space,-1,miss,target,NaN,targetNaN,lion
110,10,coffeepot,1.15034419472,right,-1,miss,path,1,path1,lion
111,10,mosquito,0.0668937652533,left,-1,miss,path,2,path2,lion
112,10,canoe,0.183562871947,right,-1,miss,path,3,path3,lion
113,10,goose,0.916926592419,left,-1,miss,decision,1,decision1,lion
114,10,sailor,1.15004293944,left,-1,miss,arm1,1,arm11,lion
115,10,cooker,0.133685200306,right,-1,miss,arm1,2,arm12,lion
116,10,tooth,0.150270541128,left,-1,miss,arm1,3,arm13,lion
117,10,garlic,2.00063450762,left,-1,miss,decision,2,decision2,lion
118,10,mug,0.816885992384,right,-1,miss,arm2,1,arm21,lion
119,10,branch,0.85066159946,left,-1,miss,arm2,2,arm22,lion
120,10,bolt,0.217014282459,right,-1,miss,arm2,3,arm23,lion
121,11,bolt,1.40003592122,space,-1,miss,target,NaN,targetNaN,bolt
122,11,coffeepot,2.96686252285,right,-1,miss,path,1,path1,bolt
123,11,mosquito,0.114048366867,left,-1,miss,path,2,path2,bolt
124,11,canoe,2.61688931283,right,-1,miss,path,3,path3,bolt
125,11,domino,2.68360649057,right,-1,miss,decision,1,decision1,bolt
126,11,ambulance,0.766980247856,right,-1,miss,arm1,1,arm11,bolt
127,11,trunk,0.233605962319,left,-1,miss,arm1,2,arm12,bolt
128,11,peach,0.617470693265,left,-1,miss,arm1,3,arm13,bolt
129,11,crutches,0.76700017055,left,-1,miss,decision,2,decision2,bolt
130,11,stapler,0.433605056742,right,-1,miss,arm2,1,arm21,bolt
131,11,rose,0.483621281663,right,-1,miss,arm2,2,arm22,bolt
132,11,lion,0.583633205094,left,-1,miss,arm2,3,arm23,bolt
133,12,lion,1.05047414502,space,-1,miss,target,NaN,targetNaN,lion
134,12,coffeepot,1.31687014479,right,-1,miss,path,1,path1,lion
135,12,mosquito,1.63374994906,left,-1,miss,path,2,path2,lion
136,12,canoe,0.113890494611,right,-1,miss,path,3,path3,lion
137,12,goose,0.700255523642,right,-1,miss,decision,1,decision1,lion
138,12,sailor,1.55023703478,left,-1,miss,arm1,1,arm11,lion
139,12,cooker,0.333603698376,right,-1,miss,arm1,2,arm12,lion
140,12,tooth,1.88355970243,left,-1,miss,arm1,3,arm13,lion
141,12,garlic,0.850258919556,right,-1,miss,decision,2,decision2,lion
142,12,mug,0.733725951271,right,-1,miss,arm2,1,arm21,lion
143,12,branch,0.183634412529,left,-1,miss,arm2,2,arm22,lion
144,12,bolt,0.200345628553,right,-1,miss,arm2,3,arm23,lion
145,13,lion,0.766977531126,space,1,correct,target,NaN,targetNaN,lion
146,13,coffeepot,0.533716895501,right,1,correct,path,1,path1,lion
147,13,mosquito,0.200272880535,left,1,correct,path,2,path2,lion
148,13,canoe,0.133785417494,right,1,correct,path,3,path3,lion
149,13,goose,0.666950212886,left,1,correct,decision,1,decision1,lion
150,13,sailor,1.1169090846,left,1,correct,arm1,1,arm11,lion
151,13,cooker,0.366910216569,right,1,correct,arm1,2,arm12,lion
152,13,tooth,0.633609886486,left,1,correct,arm1,3,arm13,lion
153,13,crutches,1.06686569237,right,1,correct,decision,2,decision2,lion
154,13,stapler,0.683594416212,right,1,correct,arm2,1,arm21,lion
155,13,rose,1.01694787348,right,1,correct,arm2,2,arm22,lion
156,13,lion,0.48374293084,left,1,correct,arm2,3,arm23,lion
157,14,lion,1.01694062886,space,1,correct,target,NaN,targetNaN,lion
158,14,coffeepot,0.500249184603,right,1,correct,path,1,path1,lion
159,14,mosquito,0.283572682364,left,1,correct,path,2,path2,lion
160,14,canoe,0.500030336829,right,1,correct,path,3,path3,lion
161,14,goose,0.800444034587,right,1,correct,decision,1,decision1,lion
162,14,sailor,0.967206340246,left,1,correct,arm1,1,arm11,lion
163,14,cooker,0.616904405783,right,1,correct,arm1,2,arm12,lion
164,14,tooth,0.517037072813,left,1,correct,arm1,3,arm13,lion
165,14,crutches,1.03355253328,left,1,correct,decision,2,decision2,lion
166,14,stapler,0.71695043928,right,1,correct,arm2,1,arm21,lion
167,14,rose,1.48376738142,right,1,correct,arm2,2,arm22,lion
168,14,lion,0.266901311728,left,1,correct,arm2,3,arm23,lion
169,15,bolt,1.81705624086,space,1,correct,target,NaN,targetNaN,bolt
170,15,coffeepot,0.933594340748,right,1,correct,path,1,path1,bolt
171,15,mosquito,0.350244883113,left,1,correct,path,2,path2,bolt
172,15,canoe,2.66687112583,right,1,correct,path,3,path3,bolt
173,15,domino,2.06693300692,left,1,correct,decision,1,decision1,bolt
174,15,ambulance,0.633717046431,right,1,correct,arm1,1,arm11,bolt
175,15,trunk,0.283583851147,left,1,correct,arm1,2,arm12,bolt
176,15,peach,1.83357638014,left,1,correct,arm1,3,arm13,bolt
177,15,garlic,1.95032125344,left,1,correct,decision,2,decision2,bolt
178,15,mug,0.633655467195,right,1,correct,arm2,1,arm21,bolt
179,15,branch,2.23364490213,left,1,correct,arm2,2,arm22,bolt
180,15,bolt,1.80023907233,right,1,correct,arm2,3,arm23,bolt
181,16,lion,0.766971192086,space,1,correct,target,NaN,targetNaN,lion
182,16,coffeepot,1.28365297686,right,1,correct,path,1,path1,lion
183,16,mosquito,0.933636902866,left,1,correct,path,2,path2,lion
184,16,canoe,0.466907047049,right,1,correct,path,3,path3,lion
185,16,goose,0.483556080119,right,1,correct,decision,1,decision1,lion
186,16,sailor,0.450257410261,left,1,correct,arm1,1,arm11,lion
187,16,cooker,2.40022035707,right,1,correct,arm1,2,arm12,lion
188,16,tooth,0.20024420393,left,1,correct,arm1,3,arm13,lion
189,16,crutches,1.45024473218,right,1,correct,decision,2,decision2,lion
190,16,stapler,0.633578191291,right,1,correct,arm2,1,arm21,lion
191,16,rose,1.16687640836,right,1,correct,arm2,2,arm22,lion
192,16,lion,1.15004143015,left,1,correct,arm2,3,arm23,lion
193,17,bolt,1.06702356462,space,-1,miss,target,NaN,targetNaN,bolt
194,17,coffeepot,0.833653656041,right,-1,miss,path,1,path1,bolt
195,17,mosquito,1.08357751211,left,-1,miss,path,2,path2,bolt
196,17,canoe,0.23354227007,right,-1,miss,path,3,path3,bolt
197,17,domino,2.5333679465,left,-1,miss,decision,1,decision1,bolt
198,17,ambulance,0.550245486831,right,-1,miss,arm1,1,arm11,bolt
199,17,trunk,0.284133536384,left,-1,miss,arm1,2,arm12,bolt
200,17,peach,0.733555400937,left,-1,miss,arm1,3,arm13,bolt
201,17,crutches,1.01699979323,right,-1,miss,decision,2,decision2,bolt
202,17,stapler,0.416923121041,right,-1,miss,arm2,1,arm21,bolt
203,17,rose,0.533896501605,right,-1,miss,arm2,2,arm22,bolt
204,17,lion,0.483598944097,left,-1,miss,arm2,3,arm23,bolt
205,18,bolt,0.800306386884,space,1,correct,target,NaN,targetNaN,bolt
206,18,coffeepot,0.700291444863,right,1,correct,path,1,path1,bolt
207,18,mosquito,1.08368225718,left,1,correct,path,2,path2,bolt
208,18,canoe,0.166715819374,right,1,correct,path,3,path3,bolt
209,18,domino,1.91720973616,right,1,correct,decision,1,decision1,bolt
210,18,ambulance,0.48359200134,right,1,correct,arm1,1,arm11,bolt
211,18,trunk,0.800392718557,left,1,correct,arm1,2,arm12,bolt
212,18,peach,0.150155532849,left,1,correct,arm1,3,arm13,bolt
213,18,garlic,1.13363931774,left,1,correct,decision,2,decision2,bolt
214,18,mug,0.500298689479,right,1,correct,arm2,1,arm21,bolt
215,18,branch,0.300372041216,left,1,correct,arm2,2,arm22,bolt
216,18,bolt,0.466930290192,right,1,correct,arm2,3,arm23,bolt
217,19,lion,1.20030729246,space,1,correct,target,NaN,targetNaN,lion
218,19,coffeepot,0.766927422532,right,1,correct,path,1,path1,lion
219,19,mosquito,0.567018583949,left,1,correct,path,2,path2,lion
220,19,canoe,0.100275144477,right,1,correct,path,3,path3,lion
221,19,goose,0.567077144595,left,1,correct,decision,1,decision1,lion
222,19,sailor,1.95057632429,left,1,correct,arm1,1,arm11,lion
223,19,cooker,0.483604377559,right,1,correct,arm1,2,arm12,lion
224,19,tooth,0.233778323807,left,1,correct,arm1,3,arm13,lion
225,19,crutches,2.30023409165,left,1,correct,decision,2,decision2,lion
226,19,stapler,0.433654259759,right,1,correct,arm2,1,arm21,lion
227,19,rose,1.1336462605,right,1,correct,arm2,2,arm22,lion
228,19,lion,0.400244505789,left,1,correct,arm2,3,arm23,lion
229,20,bolt,1.03363312963,space,1,correct,target,NaN,targetNaN,bolt
230,20,coffeepot,0.933592227735,right,1,correct,path,1,path1,bolt
231,20,mosquito,1.43370617951,left,1,correct,path,2,path2,bolt
232,20,canoe,0.350241260805,right,1,correct,path,3,path3,bolt
233,20,domino,0.0170662022063,left,1,correct,decision,1,decision1,bolt
234,20,ambulance,2.85026556045,right,1,correct,arm1,1,arm11,bolt
235,20,trunk,1.30026397569,left,1,correct,arm1,2,arm12,bolt
236,20,peach,0.100399510385,left,1,correct,arm1,3,arm13,bolt
237,20,garlic,0.916942892805,left,1,correct,decision,2,decision2,bolt
238,20,mug,0.433598113985,right,1,correct,arm2,1,arm21,bolt
239,20,branch,0.500295670889,left,1,correct,arm2,2,arm22,bolt
240,20,bolt,0.100273937041,right,1,correct,arm2,3,arm23,bolt
241,21,lion,0.833621960846,space,-1,miss,target,NaN,targetNaN,lion
242,21,coffeepot,0.633589963792,right,-1,miss,path,1,path1,lion
243,21,mosquito,0.333759155761,left,-1,miss,path,2,path2,lion
244,21,canoe,0.300248882744,right,-1,miss,path,3,path3,lion
245,21,goose,1.06691580096,right,-1,miss,decision,1,decision1,lion
246,21,sailor,0.200231525852,left,-1,miss,arm1,1,arm11,lion
247,21,cooker,0.216918895015,right,-1,miss,arm1,2,arm12,lion
248,21,tooth,0.550353250493,left,-1,miss,arm1,3,arm13,lion
249,21,garlic,3.55029408613,right,-1,miss,decision,2,decision2,lion
250,21,mug,0.633553740712,right,-1,miss,arm2,1,arm21,lion
251,21,branch,0.166901764517,left,-1,miss,arm2,2,arm22,lion
252,21,bolt,0.200511047285,right,-1,miss,arm2,3,arm23,lion
253,22,bolt,0.800331139322,space,0,wrong,target,NaN,targetNaN,bolt
254,22,coffeepot,0.716770833176,right,0,wrong,path,1,path1,bolt
255,22,mosquito,0.283753495905,left,0,wrong,path,2,path2,bolt
256,22,canoe,0.166966060484,right,0,wrong,path,3,path3,bolt
257,22,goose,0.850280049686,right,0,wrong,decision,1,decision1,bolt
258,22,sailor,0.300296576466,left,0,wrong,arm1,1,arm11,bolt
259,22,cooker,0.183597887591,right,0,wrong,arm1,2,arm12,bolt
260,22,tooth,0.183406810845,left,0,wrong,arm1,3,arm13,bolt
261,22,garlic,1.26701511257,left,0,wrong,decision,2,decision2,bolt
262,22,mug,0.283656901025,right,0,wrong,arm2,1,arm21,bolt
263,22,branch,0.167058731196,left,0,wrong,arm2,2,arm22,bolt
264,22,bolt,1.4170861249,right,0,wrong,arm2,3,arm23,bolt
265,23,lion,1.35030102889,space,1,correct,target,NaN,targetNaN,lion
266,23,coffeepot,0.633595095395,right,1,correct,path,1,path1,lion
267,23,mosquito,0.21690531136,left,1,correct,path,2,path2,lion
268,23,canoe,0.283553665248,right,1,correct,path,3,path3,lion
269,23,goose,0.550310688374,left,1,correct,decision,1,decision1,lion
270,23,sailor,1.75022224369,left,1,correct,arm1,1,arm11,lion
271,23,cooker,0.200255372713,right,1,correct,arm1,2,arm12,lion
272,23,tooth,0.433393453584,left,1,correct,arm1,3,arm13,lion
273,23,crutches,6.41700130252,right,1,correct,decision,2,decision2,lion
274,23,stapler,1.40020224553,right,1,correct,arm2,1,arm21,lion
275,23,rose,1.20025658015,right,1,correct,arm2,2,arm22,lion
276,23,lion,1.20023726117,left,1,correct,arm2,3,arm23,lion
277,24,bolt,0.68343835511,space,1,correct,target,NaN,targetNaN,bolt
278,24,coffeepot,0.800246316943,right,1,correct,path,1,path1,bolt
279,24,mosquito,0.166890595734,left,1,correct,path,2,path2,bolt
280,24,canoe,0.216896859308,right,1,correct,path,3,path3,bolt
281,24,domino,1.16693527087,left,1,correct,decision,1,decision1,bolt
282,24,ambulance,1.65024261917,right,1,correct,arm1,1,arm11,bolt
283,24,trunk,0.433590265651,left,1,correct,arm1,2,arm12,bolt
284,24,peach,0.283595321789,left,1,correct,arm1,3,arm13,bolt
285,24,garlic,2.95027567273,right,1,correct,decision,2,decision2,bolt
286,24,mug,0.850265560454,right,1,correct,arm2,1,arm21,bolt
287,24,branch,0.567448733023,left,1,correct,arm2,2,arm22,bolt
288,24,bolt,1.0002466188,right,1,correct,arm2,3,arm23,bolt
289,25,lion,0.733657127419,space,1,correct,target,NaN,targetNaN,lion
290,25,coffeepot,1.55024759984,right,1,correct,path,1,path1,lion
291,25,mosquito,0.633582115458,left,1,correct,path,2,path2,lion
292,25,canoe,0.450363060911,right,1,correct,path,3,path3,lion
293,25,goose,0.966932252276,right,1,correct,decision,1,decision1,lion
294,25,sailor,1.41693761027,left,1,correct,arm1,1,arm11,lion
295,25,cooker,0.500312273134,right,1,correct,arm1,2,arm12,lion
296,25,tooth,0.300241336269,left,1,correct,arm1,3,arm13,lion
297,25,crutches,1.61687542732,left,1,correct,decision,2,decision2,lion
298,25,stapler,0.300230167486,right,1,correct,arm2,1,arm21,lion
299,25,rose,1.90023952512,right,1,correct,arm2,2,arm22,lion
300,25,lion,0.600262617329,left,1,correct,arm2,3,arm23,lion
301,26,bolt,1.38360543407,space,1,correct,target,NaN,targetNaN,bolt
302,26,coffeepot,0.750252127729,right,1,correct,path,1,path1,bolt
303,26,mosquito,0.283584756724,left,1,correct,path,2,path2,bolt
304,26,canoe,0.233557966738,right,1,correct,path,3,path3,bolt
305,26,domino,3.01696628688,left,1,correct,decision,1,decision1,bolt
306,26,ambulance,1.35099530458,right,1,correct,arm1,1,arm11,bolt
307,26,trunk,0.467030205521,left,1,correct,arm1,2,arm12,bolt
308,26,peach,0.150234318048,left,1,correct,arm1,3,arm13,bolt
309,26,garlic,3.45026586231,left,1,correct,decision,2,decision2,bolt
310,26,mug,0.416910744822,right,1,correct,arm2,1,arm21,bolt
311,26,branch,1.11671559298,left,1,correct,arm2,2,arm22,bolt
312,26,bolt,0.150231601317,right,1,correct,arm2,3,arm23,bolt
313,27,lion,1.16675445733,space,-1,miss,target,NaN,targetNaN,lion
314,27,coffeepot,1.15025635375,right,-1,miss,path,1,path1,lion
315,27,mosquito,0.483557891273,left,-1,miss,path,2,path2,lion
316,27,canoe,0.200290690216,right,-1,miss,path,3,path3,lion
317,27,goose,0.766766833544,left,-1,miss,decision,1,decision1,lion
318,27,sailor,0.8502637493,left,-1,miss,arm1,1,arm11,lion
319,27,cooker,0.650269182762,right,-1,miss,arm1,2,arm12,lion
320,27,tooth,0.13356626786,left,-1,miss,arm1,3,arm13,lion
321,27,garlic,1.06694779801,right,-1,miss,decision,2,decision2,lion
322,27,mug,1.06692546045,right,-1,miss,arm2,1,arm21,lion
323,27,branch,0.333601283505,left,-1,miss,arm2,2,arm22,lion
324,27,bolt,0.13360852812,right,-1,miss,arm2,3,arm23,lion
325,28,lion,1.00026986194,space,1,correct,target,NaN,targetNaN,lion
326,28,coffeepot,1.75023703478,right,1,correct,path,1,path1,lion
327,28,mosquito,0.113454308358,left,1,correct,path,2,path2,lion
328,28,canoe,1.21691738572,right,1,correct,path,3,path3,lion
329,28,goose,0.633995360427,right,1,correct,decision,1,decision1,lion
330,28,sailor,1.76706748511,left,1,correct,arm1,1,arm11,lion
331,28,cooker,0.466917612114,right,1,correct,arm1,2,arm12,lion
332,28,tooth,0.633585435907,left,1,correct,arm1,3,arm13,lion
333,28,crutches,1.95026963555,left,1,correct,decision,2,decision2,lion
334,28,stapler,0.283639996921,right,1,correct,arm2,1,arm21,lion
335,28,rose,1.43362528129,right,1,correct,arm2,2,arm22,lion
336,28,lion,0.200224884954,left,1,correct,arm2,3,arm23,lion
337,29,lion,2.51691029203,space,1,correct,target,NaN,targetNaN,lion
338,29,coffeepot,10.6334212246,right,1,correct,path,1,path1,lion
339,29,mosquito,0.583581285346,left,1,correct,path,2,path2,lion
340,29,canoe,0.366904481248,right,1,correct,path,3,path3,lion
341,29,goose,2.31699571813,left,1,correct,decision,1,decision1,lion
342,29,sailor,0.967026130424,left,1,correct,arm1,1,arm11,lion
343,29,cooker,0.266912480511,right,1,correct,arm1,2,arm12,lion
344,29,tooth,0.767020093244,left,1,correct,arm1,3,arm13,lion
345,29,crutches,0.933658636714,right,1,correct,decision,2,decision2,lion
346,29,stapler,1.41727599421,right,1,correct,arm2,1,arm21,lion
347,29,rose,2.30021990428,right,1,correct,arm2,2,arm22,lion
348,29,lion,1.56689874593,left,1,correct,arm2,3,arm23,lion
349,30,bolt,3.66692183814,space,1,correct,target,NaN,targetNaN,bolt
350,30,coffeepot,0.76693406343,right,1,correct,path,1,path1,bolt
351,30,mosquito,0.550261787217,left,1,correct,path,2,path2,bolt
352,30,canoe,0.183547778997,right,1,correct,path,3,path3,bolt
353,30,domino,1.41694153444,left,1,correct,decision,1,decision1,bolt
354,30,ambulance,0.483645732242,right,1,correct,arm1,1,arm11,bolt
355,30,trunk,0.151241017808,left,1,correct,arm1,2,arm12,bolt
356,30,peach,0.85022450763,left,1,correct,arm1,3,arm13,bolt
357,30,garlic,5.81686003251,left,1,correct,decision,2,decision2,bolt
358,30,mug,1.35027325786,right,1,correct,arm2,1,arm21,bolt
359,30,branch,0.667241808679,left,1,correct,arm2,2,arm22,bolt
360,30,bolt,0.250275521801,right,1,correct,arm2,3,arm23,bolt
361,31,lion,1.11706273083,space,1,correct,target,NaN,targetNaN,lion
362,31,coffeepot,0.816933384247,right,1,correct,path,1,path1,lion
363,31,mosquito,0.216904405783,left,1,correct,path,2,path2,lion
364,31,canoe,0.300323140058,right,1,correct,path,3,path3,lion
365,31,goose,0.716922970111,right,1,correct,decision,1,decision1,lion
366,31,sailor,1.23361139578,left,1,correct,arm1,1,arm11,lion
367,31,cooker,1.21697745566,right,1,correct,arm1,2,arm12,lion
368,31,tooth,0.533669201779,left,1,correct,arm1,3,arm13,lion
369,31,crutches,1.65034404379,right,1,correct,decision,2,decision2,lion
370,31,stapler,1.78372195164,right,1,correct,arm2,1,arm21,lion
371,31,rose,1.01693036566,right,1,correct,arm2,2,arm22,lion
372,31,lion,0.383640449709,left,1,correct,arm2,3,arm23,lion
373,32,bolt,0.80039785016,space,1,correct,target,NaN,targetNaN,bolt
374,32,coffeepot,0.600261711752,right,1,correct,path,1,path1,bolt
375,32,mosquito,0.450240808016,left,1,correct,path,2,path2,bolt
376,32,canoe,0.216876634755,right,1,correct,path,3,path3,bolt
377,32,domino,1.88360045339,left,1,correct,decision,1,decision1,bolt
378,32,ambulance,1.16691112215,right,1,correct,arm1,1,arm11,bolt
379,32,trunk,0.233582417317,left,1,correct,arm1,2,arm12,bolt
380,32,peach,0.166903575671,left,1,correct,arm1,3,arm13,bolt
381,32,garlic,2.08360860359,left,1,correct,decision,2,decision2,bolt
382,32,mug,2.25022994109,right,1,correct,arm2,1,arm21,bolt
383,32,branch,1.11696643781,left,1,correct,arm2,2,arm22,bolt
384,32,bolt,0.150321253439,right,1,correct,arm2,3,arm23,bolt
385,33,lion,0.317109518973,space,1,correct,target,NaN,targetNaN,lion
386,33,coffeepot,2.85055081721,right,1,correct,path,1,path1,lion
387,33,mosquito,0.450274314365,left,1,correct,path,2,path2,lion
388,33,canoe,0.467076993666,right,1,correct,path,3,path3,lion
389,33,goose,1.80031966868,left,1,correct,decision,1,decision1,lion
390,33,sailor,1.50022805447,left,1,correct,arm1,1,arm11,lion
391,33,cooker,0.816924026618,right,1,correct,arm1,2,arm12,lion
392,33,tooth,0.600244807648,left,1,correct,arm1,3,arm13,lion
393,33,crutches,1.95031581998,left,1,correct,decision,2,decision2,lion
394,33,stapler,1.88365056199,right,1,correct,arm2,1,arm21,lion
395,33,rose,0.650405019311,right,1,correct,arm2,2,arm22,lion
396,33,lion,0.50026518313,left,1,correct,arm2,3,arm23,lion
397,34,bolt,1.16693828946,space,1,correct,target,NaN,targetNaN,bolt
398,34,coffeepot,0.650192208717,right,1,correct,path,1,path1,bolt
399,34,mosquito,0.533610641133,left,1,correct,path,2,path2,bolt
400,34,canoe,0.183710480997,right,1,correct,path,3,path3,bolt
401,34,domino,1.43359418982,right,1,correct,decision,1,decision1,bolt
402,34,ambulance,1.6835437039,right,1,correct,arm1,1,arm11,bolt
403,34,trunk,0.516924479406,left,1,correct,arm1,2,arm12,bolt
404,34,peach,0.216895048154,left,1,correct,arm1,3,arm13,bolt
405,34,garlic,2.23358905821,left,1,correct,decision,2,decision2,bolt
406,34,mug,1.20022790354,right,1,correct,arm2,1,arm21,bolt
407,34,branch,0.350246996126,left,1,correct,arm2,2,arm22,bolt
408,34,bolt,0.250235676413,right,1,correct,arm2,3,arm23,bolt
409,35,bolt,1.18367486164,space,1,correct,target,NaN,targetNaN,bolt
410,35,coffeepot,1.18382911158,right,1,correct,path,1,path1,bolt
411,35,mosquito,0.113082116213,left,1,correct,path,2,path2,bolt
412,35,canoe,1.61695451438,right,1,correct,path,3,path3,bolt
413,35,domino,1.01678698263,right,1,correct,decision,1,decision1,bolt
414,35,ambulance,1.26696621141,right,1,correct,arm1,1,arm11,bolt
415,35,trunk,0.266910367498,left,1,correct,arm1,2,arm12,bolt
416,35,peach,0.183726479524,left,1,correct,arm1,3,arm13,bolt
417,35,garlic,0.400360721503,left,1,correct,decision,2,decision2,bolt
418,35,mug,1.95024548683,right,1,correct,arm2,1,arm21,bolt
419,35,branch,0.133754326017,left,1,correct,arm2,2,arm22,bolt
420,35,bolt,0.183672446763,right,1,correct,arm2,3,arm23,bolt
421,36,lion,1.03373244124,space,1,correct,target,NaN,targetNaN,lion
422,36,coffeepot,1.18358400208,right,1,correct,path,1,path1,lion
423,36,mosquito,0.433425148779,left,1,correct,path,2,path2,lion
424,36,canoe,0.15023975151,right,1,correct,path,3,path3,lion
425,36,goose,0.467021753469,left,1,correct,decision,1,decision1,lion
426,36,sailor,1.60037973862,left,1,correct,arm1,1,arm11,lion
427,36,cooker,0.233625583154,right,1,correct,arm1,2,arm12,lion
428,36,tooth,0.233542571929,left,1,correct,arm1,3,arm13,lion
429,36,crutches,3.31690455671,left,1,correct,decision,2,decision2,lion
430,36,stapler,0.93365984415,right,1,correct,arm2,1,arm21,lion
431,36,rose,1.58444037606,right,1,correct,arm2,2,arm22,lion
432,36,lion,0.283577512108,left,1,correct,arm2,3,arm23,lion
433,37,lion,0.850303896547,space,0,wrong,target,NaN,targetNaN,lion
434,37,coffeepot,1.40020224553,right,0,wrong,path,1,path1,lion
435,37,mosquito,0.113032913196,left,0,wrong,path,2,path2,lion
436,37,canoe,1.23358875636,right,0,wrong,path,3,path3,lion
437,37,domino,0.966997453819,left,0,wrong,decision,1,decision1,lion
438,37,ambulance,2.25033770475,right,0,wrong,arm1,1,arm11,lion
439,37,trunk,0.600269861945,left,0,wrong,arm1,2,arm12,lion
440,37,peach,0.200246920661,left,0,wrong,arm1,3,arm13,lion
441,37,crutches,4.51685112767,left,0,wrong,decision,2,decision2,lion
442,37,stapler,1.00029038836,right,0,wrong,arm2,1,arm21,lion
443,37,rose,1.38357222958,right,0,wrong,arm2,2,arm22,lion
444,37,lion,0.134423547417,left,0,wrong,arm2,3,arm23,lion
445,38,lion,1.16699715196,space,1,correct,target,NaN,targetNaN,lion
446,38,coffeepot,1.51704099698,right,1,correct,path,1,path1,lion
447,38,mosquito,2.95021681023,left,1,correct,path,2,path2,lion
448,38,canoe,0.216958136685,right,1,correct,path,3,path3,lion
449,38,goose,0.283695237118,right,1,correct,decision,1,decision1,lion
450,38,sailor,5.26691519724,left,1,correct,arm1,1,arm11,lion
451,38,cooker,0.450246543337,right,1,correct,arm1,2,arm12,lion
452,38,tooth,0.366968475355,left,1,correct,arm1,3,arm13,lion
453,38,crutches,0.816939421427,left,1,correct,decision,2,decision2,lion
454,38,stapler,1.9502376385,right,1,correct,arm2,1,arm21,lion
455,38,rose,0.61700190624,right,1,correct,arm2,2,arm22,lion
456,38,lion,0.233572154111,left,1,correct,arm2,3,arm23,lion
457,39,lion,0.300347892496,space,-1,miss,target,NaN,targetNaN,lion
458,39,coffeepot,4.83365456162,right,-1,miss,path,1,path1,lion
459,39,mosquito,1.21698741701,left,-1,miss,path,2,path2,lion
460,39,canoe,0.150227979009,right,-1,miss,path,3,path3,lion
461,39,goose,1.5503333278,right,-1,miss,decision,1,decision1,lion
462,39,sailor,6.00047814465,left,-1,miss,arm1,1,arm11,lion
463,39,cooker,0.883581134416,right,-1,miss,arm1,2,arm12,lion
464,39,tooth,0.883644222947,left,-1,miss,arm1,3,arm13,lion
465,39,garlic,0.767191549156,left,-1,miss,decision,2,decision2,lion
466,39,mug,0.317102274357,right,-1,miss,arm2,1,arm21,lion
467,39,branch,0.300257032937,left,-1,miss,arm2,2,arm22,lion
468,39,bolt,3.95018058715,right,-1,miss,arm2,3,arm23,lion
469,40,bolt,0.850279747827,space,1,correct,target,NaN,targetNaN,bolt
470,40,coffeepot,1.51687980427,right,1,correct,path,1,path1,bolt
471,40,mosquito,0.134275334648,left,1,correct,path,2,path2,bolt
472,40,canoe,0.200240279763,right,1,correct,path,3,path3,bolt
473,40,domino,0.533667088766,right,1,correct,decision,1,decision1,bolt
474,40,ambulance,1.41690983924,right,1,correct,arm1,1,arm11,bolt
475,40,trunk,0.466938440385,left,1,correct,arm1,2,arm12,bolt
476,40,peach,0.116913310623,left,1,correct,arm1,3,arm13,bolt
477,40,garlic,1.66688923737,left,1,correct,decision,2,decision2,bolt
478,40,mug,0.683607396149,right,1,correct,arm2,1,arm21,bolt
479,40,branch,1.55026359837,left,1,correct,arm2,2,arm22,bolt
480,40,bolt,0.433582417317,right,1,correct,arm2,3,arm23,bolt
481,41,bolt,0.550270541127,space,1,correct,target,NaN,targetNaN,bolt
482,41,coffeepot,1.55026299465,right,1,correct,path,1,path1,bolt
483,41,mosquito,0.366886973426,left,1,correct,path,2,path2,bolt
484,41,canoe,0.113539432596,right,1,correct,path,3,path3,bolt
485,41,domino,2.33386601385,right,1,correct,decision,1,decision1,bolt
486,41,ambulance,0.716989982809,right,1,correct,arm1,1,arm11,bolt
487,41,trunk,0.150254240742,left,1,correct,arm1,2,arm12,bolt
488,41,peach,0.283990455218,left,1,correct,arm1,3,arm13,bolt
489,41,garlic,3.03357970059,left,1,correct,decision,2,decision2,bolt
490,41,mug,0.5833902086,right,1,correct,arm2,1,arm21,bolt
491,41,branch,0.383582492782,left,1,correct,arm2,2,arm22,bolt
492,41,bolt,0.150292878694,right,1,correct,arm2,3,arm23,bolt
493,42,bolt,0.31691451806,space,1,correct,target,NaN,targetNaN,bolt
494,42,coffeepot,0.517049147173,right,1,correct,path,1,path1,bolt
495,42,mosquito,0.783624753042,left,1,correct,path,2,path2,bolt
496,42,canoe,0.116913914341,right,1,correct,path,3,path3,bolt
497,42,domino,0.600323290987,left,1,correct,decision,1,decision1,bolt
498,42,ambulance,0.71695043928,right,1,correct,arm1,1,arm11,bolt
499,42,trunk,0.217122046121,left,1,correct,arm1,2,arm12,bolt
500,42,peach,1.70021084851,left,1,correct,arm1,3,arm13,bolt
501,42,garlic,1.05027642738,left,1,correct,decision,2,decision2,bolt
502,42,mug,1.80023454444,right,1,correct,arm2,1,arm21,bolt
503,42,branch,0.483587473455,left,1,correct,arm2,2,arm22,bolt
504,42,bolt,0.23358754892,right,1,correct,arm2,3,arm23,bolt
505,43,bolt,1.5002389214,space,1,correct,target,NaN,targetNaN,bolt
506,43,coffeepot,0.66689467083,right,1,correct,path,1,path1,bolt
507,43,mosquito,0.15026691882,left,1,correct,path,2,path2,bolt
508,43,canoe,0.166910216569,right,1,correct,path,3,path3,bolt
509,43,domino,3.95034117613,left,1,correct,decision,1,decision1,bolt
510,43,ambulance,1.83361592367,right,1,correct,arm1,1,arm11,bolt
511,43,trunk,0.266922743717,left,1,correct,arm1,2,arm12,bolt
512,43,peach,0.150336950107,left,1,correct,arm1,3,arm13,bolt
513,43,garlic,0.900302613646,left,1,correct,decision,2,decision2,bolt
514,43,mug,1.28358294557,right,1,correct,arm2,1,arm21,bolt
515,43,branch,0.366895727337,left,1,correct,arm2,2,arm22,bolt
516,43,bolt,0.216920706169,right,1,correct,arm2,3,arm23,bolt
517,44,bolt,0.300388039743,space,1,correct,target,NaN,targetNaN,bolt
518,44,coffeepot,0.483591699481,right,1,correct,path,1,path1,bolt
519,44,mosquito,0.300232582359,left,1,correct,path,2,path2,bolt
520,44,canoe,0.250300274239,right,1,correct,path,3,path3,bolt
521,44,domino,3.08365629731,left,1,correct,decision,1,decision1,bolt
522,44,ambulance,0.650270692057,right,1,correct,arm1,1,arm11,bolt
523,44,trunk,0.166909310992,left,1,correct,arm1,2,arm12,bolt
524,44,peach,1.75019869869,left,1,correct,arm1,3,arm13,bolt
525,44,garlic,0.816961758993,left,1,correct,decision,2,decision2,bolt
526,44,mug,0.500267598002,right,1,correct,arm2,1,arm21,bolt
527,44,branch,0.950285332218,left,1,correct,arm2,2,arm22,bolt
528,44,bolt,0.183570720281,right,1,correct,arm2,3,arm23,bolt
529,45,lion,0.550381021521,space,1,correct,target,NaN,targetNaN,lion
530,45,coffeepot,0.783618715862,right,1,correct,path,1,path1,lion
531,45,mosquito,0.18339594392,left,1,correct,path,2,path2,lion
532,45,canoe,0.950243675677,right,1,correct,path,3,path3,lion
533,45,goose,0.867005754942,right,1,correct,decision,1,decision1,lion
534,45,sailor,1.23357607828,left,1,correct,arm1,1,arm11,lion
535,45,cooker,0.200268956368,right,1,correct,arm1,2,arm12,lion
536,45,tooth,0.200276804702,left,1,correct,arm1,3,arm13,lion
537,45,crutches,0.634097690628,right,1,correct,decision,2,decision2,lion
538,45,stapler,1.08358475672,right,1,correct,arm2,1,arm21,lion
539,45,rose,0.450245939619,right,1,correct,arm2,2,arm22,lion
540,45,lion,0.116915725496,left,1,correct,arm2,3,arm23,lion
541,46,lion,0.500424564681,space,1,correct,target,NaN,targetNaN,lion
542,46,coffeepot,1.13373168659,right,1,correct,path,1,path1,lion
543,46,mosquito,0.200543949916,left,1,correct,path,2,path2,lion
544,46,canoe,0.166898142209,right,1,correct,path,3,path3,lion
545,46,goose,0.350285030359,left,1,correct,decision,1,decision1,lion
546,46,sailor,1.13356324927,left,1,correct,arm1,1,arm11,lion
547,46,cooker,0.250427055018,right,1,correct,arm1,2,arm12,lion
548,46,tooth,0.166885162272,left,1,correct,arm1,3,arm13,lion
549,46,crutches,1.5669733051,left,1,correct,decision,2,decision2,lion
550,46,stapler,0.83338560525,right,1,correct,arm2,1,arm21,lion
551,46,rose,0.800264126624,right,1,correct,arm2,2,arm22,lion
552,46,lion,0.20024420393,left,1,correct,arm2,3,arm23,lion
553,47,bolt,0.400269861945,space,1,correct,target,NaN,targetNaN,bolt
554,47,coffeepot,0.616960853416,right,1,correct,path,1,path1,bolt
555,47,mosquito,0.0835910957633,left,1,correct,path,2,path2,bolt
556,47,canoe,0.333696972807,right,1,correct,path,3,path3,bolt
557,47,domino,2.63364943001,right,1,correct,decision,1,decision1,bolt
558,47,ambulance,1.41691798944,right,1,correct,arm1,1,arm11,bolt
559,47,trunk,0.250234770836,left,1,correct,arm1,2,arm12,bolt
560,47,peach,0.250346760525,left,1,correct,arm1,3,arm13,bolt
561,47,garlic,8.05011855512,left,1,correct,decision,2,decision2,bolt
562,47,mug,0.7667200454,right,1,correct,arm2,1,arm21,bolt
563,47,branch,0.2002532597,left,1,correct,arm2,2,arm22,bolt
564,47,bolt,0.900249788321,right,1,correct,arm2,3,arm23,bolt
565,48,lion,0.466921536281,space,1,correct,target,NaN,targetNaN,lion
566,48,coffeepot,1.81694908091,right,1,correct,path,1,path1,lion
567,48,mosquito,0.333451259582,left,1,correct,path,2,path2,lion
568,48,canoe,0.233608075332,right,1,correct,path,3,path3,lion
569,48,goose,0.58363441253,right,1,correct,decision,1,decision1,lion
570,48,sailor,0.900275446336,left,1,correct,arm1,1,arm11,lion
571,48,cooker,0.200248429956,right,1,correct,arm1,2,arm12,lion
572,48,tooth,0.316893689789,left,1,correct,arm1,3,arm13,lion
573,48,crutches,0.734081239312,right,1,correct,decision,2,decision2,lion
574,48,stapler,0.783459636169,right,1,correct,arm2,1,arm21,lion
575,48,rose,1.08358203999,right,1,correct,arm2,2,arm22,lion
576,48,lion,0.217111782915,left,1,correct,arm2,3,arm23,lion
577,49,bolt,0.550266315102,space,1,correct,target,NaN,targetNaN,bolt
578,49,coffeepot,1.46690583961,right,1,correct,path,1,path1,bolt
579,49,mosquito,0.183858995625,left,1,correct,path,2,path2,bolt
580,49,canoe,0.233574568983,right,1,correct,path,3,path3,bolt
581,49,domino,4.6835150273,right,1,correct,decision,1,decision1,bolt
582,49,ambulance,0.68415587395,right,1,correct,arm1,1,arm11,bolt
583,49,trunk,0.350041732007,left,1,correct,arm1,2,arm12,bolt
584,49,peach,0.150234016189,left,1,correct,arm1,3,arm13,bolt
585,49,garlic,2.10032887538,left,1,correct,decision,2,decision2,bolt
586,49,mug,0.816963268288,right,1,correct,arm2,1,arm21,bolt
587,49,branch,0.683570569351,left,1,correct,arm2,2,arm22,bolt
588,49,bolt,0.166864937719,right,1,correct,arm2,3,arm23,bolt
589,50,bolt,0.250279445968,space,1,correct,target,NaN,targetNaN,bolt
590,50,coffeepot,1.13356234369,right,1,correct,path,1,path1,bolt
591,50,mosquito,0.167008320743,left,1,correct,path,2,path2,bolt
592,50,canoe,0.183547778997,right,1,correct,path,3,path3,bolt
593,50,domino,1.03374511932,right,1,correct,decision,1,decision1,bolt
594,50,ambulance,0.400254768995,right,1,correct,arm1,1,arm11,bolt
595,50,trunk,0.250331969434,left,1,correct,arm1,2,arm12,bolt
596,50,peach,2.3502309976,left,1,correct,arm1,3,arm13,bolt
597,50,garlic,1.58389642614,right,1,correct,decision,2,decision2,bolt
598,50,mug,0.383708971702,right,1,correct,arm2,1,arm21,bolt
599,50,branch,0.433602340011,left,1,correct,arm2,2,arm22,bolt
600,50,bolt,0.116931422163,right,1,correct,arm2,3,arm23,bolt
