pic_index,trial_num,pic_name,rt,resp,feedback_code,feedback,segment,segment_index,pic_type,trial_target
1,1,lion,6.80021462176,space,-1,miss,target,NaN,targetNaN,lion
2,1,coffeepot,2.55021530093,left,-1,miss,path,1,path1,lion
3,1,mosquito,1.15023673291,left,-1,miss,path,2,path2,lion
4,1,canoe,1.06693572365,right,-1,miss,path,3,path3,lion
5,1,goose,3.46683912876,right,-1,miss,decision,1,decision1,lion
6,1,sailor,1.23356672068,left,-1,miss,arm1,1,arm11,lion
7,1,cooker,1.41688991652,right,-1,miss,arm1,2,arm12,lion
8,1,tooth,0.983570720244,left,-1,miss,arm1,3,arm13,lion
9,1,garlic,1.93357170135,right,-1,miss,decision,2,decision2,lion
10,1,mug,5.70017673844,right,-1,miss,arm2,1,arm21,lion
11,1,branch,0.700241034385,left,-1,miss,arm2,2,arm22,lion
12,1,bolt,2.20022729982,right,-1,miss,arm2,3,arm23,lion
13,2,bolt,0.683610716602,space,-1,miss,target,NaN,targetNaN,bolt
14,2,coffeepot,6.28349087859,left,-1,miss,path,1,path1,bolt
15,2,mosquito,1.10023288423,left,-1,miss,path,2,path2,bolt
16,2,canoe,0.816960551543,right,-1,miss,path,3,path3,bolt
17,2,goose,1.13362180995,left,-1,miss,decision,1,decision1,bolt
18,2,sailor,3.08437351428,left,-1,miss,arm1,1,arm11,bolt
19,2,cooker,1.23358634149,right,-1,miss,arm1,2,arm12,bolt
20,2,tooth,1.80022971472,left,-1,miss,arm1,3,arm13,bolt
21,2,crutches,1.55060741579,left,-1,miss,decision,2,decision2,bolt
22,2,stapler,7.80012859195,right,-1,miss,arm2,1,arm21,bolt
23,2,rose,1.20025688206,right,-1,miss,arm2,2,arm22,bolt
24,2,lion,2.70022111171,left,-1,miss,arm2,3,arm23,bolt
25,3,lion,0.600339893252,space,1,correct,target,NaN,targetNaN,lion
26,3,coffeepot,2.58363652555,left,1,correct,path,1,path1,lion
27,3,mosquito,0.300226545194,left,1,correct,path,2,path2,lion
28,3,canoe,0.114295589388,right,1,correct,path,3,path3,lion
29,3,goose,3.28373840294,left,1,correct,decision,1,decision1,lion
30,3,sailor,1.8836961427,left,1,correct,arm1,1,arm11,lion
31,3,cooker,1.40024873184,right,1,correct,arm1,2,arm12,lion
32,3,tooth,0.683572380512,left,1,correct,arm1,3,arm13,lion
33,3,crutches,2.08386578743,left,1,correct,decision,2,decision2,lion
34,3,stapler,1.21692613966,right,1,correct,arm2,1,arm21,lion
35,3,rose,0.651061864512,right,1,correct,arm2,2,arm22,lion
36,3,lion,1.0669508166,left,1,correct,arm2,3,arm23,lion
37,4,lion,0.816974738904,space,1,correct,target,NaN,targetNaN,lion
38,4,coffeepot,1.4004011706,left,1,correct,path,1,path1,lion
39,4,mosquito,0.516926290526,left,1,correct,path,2,path2,lion
40,4,canoe,0.683593812515,right,1,correct,path,3,path3,lion
41,4,goose,0.967084087315,right,1,correct,decision,1,decision1,lion
42,4,sailor,2.533570192,left,1,correct,arm1,1,arm11,lion
43,4,cooker,1.40006218292,right,1,correct,arm1,2,arm12,lion
44,4,tooth,4.86698492669,left,1,correct,arm1,3,arm13,lion
45,4,crutches,0.916912103188,left,1,correct,decision,2,decision2,lion
46,4,stapler,1.31713125284,right,1,correct,arm2,1,arm21,lion
47,4,rose,1.03360928275,right,1,correct,arm2,2,arm22,lion
48,4,lion,1.66690553777,left,1,correct,arm2,3,arm23,lion
49,5,lion,0.7670379029,space,1,correct,target,NaN,targetNaN,lion
50,5,coffeepot,1.85023326153,left,1,correct,path,1,path1,lion
51,5,mosquito,0.566921385354,left,1,correct,path,2,path2,lion
52,5,canoe,0.617013074982,right,1,correct,path,3,path3,lion
53,5,goose,1.35027506901,right,1,correct,decision,1,decision1,lion
54,5,sailor,1.41705563711,left,1,correct,arm1,1,arm11,lion
55,5,cooker,0.733495632827,right,1,correct,arm1,2,arm12,lion
56,5,tooth,0.600245109526,left,1,correct,arm1,3,arm13,lion
57,5,crutches,1.35023492179,left,1,correct,decision,2,decision2,lion
58,5,stapler,1.6335561556,right,1,correct,arm2,1,arm21,lion
59,5,rose,1.25033740286,right,1,correct,arm2,2,arm22,lion
60,5,lion,0.783584303979,left,1,correct,arm2,3,arm23,lion
61,6,bolt,0.500280879787,space,1,correct,target,NaN,targetNaN,bolt
62,6,coffeepot,1.58357675746,left,1,correct,path,1,path1,bolt
63,6,mosquito,0.267015112564,left,1,correct,path,2,path2,bolt
64,6,canoe,0.316937157477,right,1,correct,path,3,path3,bolt
65,6,domino,1.65024563781,left,1,correct,decision,1,decision1,bolt
66,6,ambulance,1.83354438312,right,1,correct,arm1,1,arm11,bolt
67,6,trunk,1.48356996558,left,1,correct,arm1,2,arm12,bolt
68,6,peach,0.766943119175,left,1,correct,arm1,3,arm13,bolt
69,6,garlic,1.95030193444,left,1,correct,decision,2,decision2,bolt
70,6,mug,3.65019734029,right,1,correct,arm2,1,arm21,bolt
71,6,branch,2.51687195594,left,1,correct,arm2,2,arm22,bolt
72,6,bolt,0.800278917712,right,1,correct,arm2,3,arm23,bolt
73,7,bolt,0.0169822854223,space,1,correct,target,NaN,targetNaN,bolt
74,7,coffeepot,2.76691534818,left,1,correct,path,1,path1,bolt
75,7,mosquito,0.483657202916,left,1,correct,path,2,path2,bolt
76,7,canoe,0.113984674623,right,1,correct,path,3,path3,bolt
77,7,domino,6.85021243332,left,1,correct,decision,1,decision1,bolt
78,7,ambulance,1.73361516901,right,1,correct,arm1,1,arm11,bolt
79,7,trunk,0.966938289406,left,1,correct,arm1,2,arm12,bolt
80,7,peach,0.616937006533,left,1,correct,arm1,3,arm13,bolt
81,7,garlic,1.55022103625,left,1,correct,decision,2,decision2,bolt
82,7,mug,3.96690810355,right,1,correct,arm2,1,arm21,bolt
83,7,branch,0.600244505797,left,1,correct,arm2,2,arm22,bolt
84,7,bolt,0.633590265643,right,1,correct,arm2,3,arm23,bolt
85,8,lion,1.7002712203,space,1,correct,target,NaN,targetNaN,lion
86,8,coffeepot,1.25025771209,left,1,correct,path,1,path1,lion
87,8,mosquito,0.300238317694,left,1,correct,path,2,path2,lion
88,8,canoe,0.483686785097,right,1,correct,path,3,path3,lion
89,8,goose,1.90038381371,right,1,correct,decision,1,decision1,lion
90,8,sailor,1.51684539235,left,1,correct,arm1,1,arm11,lion
91,8,cooker,0.733376700431,right,1,correct,arm1,2,arm12,lion
92,8,tooth,0.400237563066,left,1,correct,arm1,3,arm13,lion
93,8,crutches,1.91712491383,right,1,correct,decision,2,decision2,lion
94,8,stapler,3.73351163138,right,1,correct,arm2,1,arm21,lion
95,8,rose,0.533611546736,right,1,correct,arm2,2,arm22,lion
96,8,lion,1.38354989199,left,1,correct,arm2,3,arm23,lion
97,9,bolt,0.700306235987,space,1,correct,target,NaN,targetNaN,bolt
98,9,coffeepot,1.23381001898,left,1,correct,path,1,path1,bolt
99,9,mosquito,0.250277332962,left,1,correct,path,2,path2,bolt
100,9,canoe,0.500240128837,right,1,correct,path,3,path3,bolt
101,9,domino,2.25025469356,left,1,correct,decision,1,decision1,bolt
102,9,ambulance,1.68356875819,right,1,correct,arm1,1,arm11,bolt
103,9,trunk,1.11696341919,left,1,correct,arm1,2,arm12,bolt
104,9,peach,0.400245109515,left,1,correct,arm1,3,arm13,bolt
105,9,garlic,1.15028321918,left,1,correct,decision,2,decision2,bolt
106,9,mug,2.21688901098,right,1,correct,arm2,1,arm21,bolt
107,9,branch,0.516925988719,left,1,correct,arm2,2,arm22,bolt
108,9,bolt,0.316931724024,right,1,correct,arm2,3,arm23,bolt
109,10,bolt,1.03363131848,space,1,correct,target,NaN,targetNaN,bolt
110,10,coffeepot,1.60025808943,left,1,correct,path,1,path1,bolt
111,10,mosquito,0.43375085463,left,1,correct,path,2,path2,bolt
112,10,canoe,0.113987995079,right,1,correct,path,3,path3,bolt
113,10,domino,0.100347288768,right,1,correct,decision,1,decision1,bolt
114,10,ambulance,4.00017839868,right,1,correct,arm1,1,arm11,bolt
115,10,trunk,0.600269861927,left,1,correct,arm1,2,arm12,bolt
116,10,peach,0.783576757472,left,1,correct,arm1,3,arm13,bolt
117,10,garlic,2.71718468185,left,1,correct,decision,2,decision2,bolt
118,10,mug,1.33354785445,right,1,correct,arm2,1,arm21,bolt
119,10,branch,0.533561136283,left,1,correct,arm2,2,arm22,bolt
120,10,bolt,1.55023160134,right,1,correct,arm2,3,arm23,bolt
121,11,bolt,1.65027189947,space,-1,miss,target,NaN,targetNaN,bolt
122,11,coffeepot,1.23356792808,left,-1,miss,path,1,path1,bolt
123,11,mosquito,0.500256731058,left,-1,miss,path,2,path2,bolt
124,11,canoe,2.50021718757,right,-1,miss,path,3,path3,bolt
125,11,goose,8.75010119827,left,-1,miss,decision,1,decision1,bolt
126,11,sailor,1.63396577822,left,-1,miss,arm1,1,arm11,bolt
127,11,cooker,0.516748495633,right,-1,miss,arm1,2,arm12,bolt
128,11,tooth,0.150356570957,left,-1,miss,arm1,3,arm13,bolt
129,11,crutches,3.03362196084,right,-1,miss,decision,2,decision2,bolt
130,11,stapler,1.1169012363,right,-1,miss,arm2,1,arm21,bolt
131,11,rose,0.633579398738,right,-1,miss,arm2,2,arm22,bolt
132,11,lion,0.966948552639,left,-1,miss,arm2,3,arm23,bolt
133,12,bolt,0.916945911362,space,1,correct,target,NaN,targetNaN,bolt
134,12,coffeepot,2.00021069753,left,1,correct,path,1,path1,bolt
135,12,mosquito,0.533574116183,left,1,correct,path,2,path2,bolt
136,12,canoe,0.114161865844,right,1,correct,path,3,path3,bolt
137,12,domino,0.0503733240766,right,1,correct,decision,1,decision1,bolt
138,12,ambulance,2.01693881775,right,1,correct,arm1,1,arm11,bolt
139,12,trunk,0.583636223688,left,1,correct,arm1,2,arm12,bolt
140,12,peach,0.550297104695,left,1,correct,arm1,3,arm13,bolt
141,12,garlic,1.48358566232,left,1,correct,decision,2,decision2,bolt
142,12,mug,2.58353419532,right,1,correct,arm2,1,arm21,bolt
143,12,branch,0.650411056529,left,1,correct,arm2,2,arm22,bolt
144,12,bolt,0.266913989792,right,1,correct,arm2,3,arm23,bolt
145,13,lion,0.900271824037,space,-1,miss,target,NaN,targetNaN,lion
146,13,coffeepot,0.95024578867,left,-1,miss,path,1,path1,lion
147,13,mosquito,0.634493729682,left,-1,miss,path,2,path2,lion
148,13,canoe,0.26692878094,right,-1,miss,path,3,path3,lion
149,13,domino,2.55025605188,right,-1,miss,decision,1,decision1,lion
150,13,ambulance,1.68355758942,right,-1,miss,arm1,1,arm11,lion
151,13,trunk,0.816931573092,left,-1,miss,arm1,2,arm12,lion
152,13,peach,0.350338157557,left,-1,miss,arm1,3,arm13,lion
153,13,garlic,2.10035574087,left,-1,miss,decision,2,decision2,lion
154,13,mug,0.966928026231,right,-1,miss,arm2,1,arm21,lion
155,13,branch,0.566915650037,left,-1,miss,arm2,2,arm22,lion
156,13,bolt,0.183579776087,right,-1,miss,arm2,3,arm23,lion
157,14,lion,1.88359683106,space,-1,miss,target,NaN,targetNaN,lion
158,14,coffeepot,4.83352747897,left,-1,miss,path,1,path1,lion
159,14,mosquito,0.434027357493,left,-1,miss,path,2,path2,lion
160,14,canoe,0.300236506504,right,-1,miss,path,3,path3,lion
161,14,domino,2.61693066749,right,-1,miss,decision,1,decision1,lion
162,14,ambulance,1.06732512178,right,-1,miss,arm1,1,arm11,lion
163,14,trunk,0.583578266727,left,-1,miss,arm1,2,arm12,lion
164,14,peach,0.48358656792,left,-1,miss,arm1,3,arm13,lion
165,14,garlic,3.61693368613,right,-1,miss,decision,2,decision2,lion
166,14,mug,2.80024329835,right,-1,miss,arm2,1,arm21,lion
167,14,branch,0.500272427744,left,-1,miss,arm2,2,arm22,lion
168,14,bolt,0.233549816534,right,-1,miss,arm2,3,arm23,lion
169,15,lion,1.3002962746,space,0,wrong,target,NaN,targetNaN,lion
170,15,coffeepot,2.7168556556,left,0,wrong,path,1,path1,lion
171,15,mosquito,0.283572078624,left,0,wrong,path,2,path2,lion
172,15,canoe,0.114163375169,right,0,wrong,path,3,path3,lion
173,15,domino,0.0335682299337,left,0,wrong,decision,1,decision1,lion
174,15,ambulance,1.95116253447,right,0,wrong,arm1,1,arm11,lion
175,15,trunk,0.26693874225,left,0,wrong,arm1,2,arm12,lion
176,15,peach,0.416908933665,left,0,wrong,arm1,3,arm13,lion
177,15,crutches,1.28384948702,left,0,wrong,decision,2,decision2,lion
178,15,stapler,0.883571173064,right,0,wrong,arm2,1,arm21,lion
179,15,rose,0.816992246779,right,0,wrong,arm2,2,arm22,lion
180,15,lion,0.700290539244,left,0,wrong,arm2,3,arm23,lion
181,16,bolt,0.367004396569,space,1,correct,target,NaN,targetNaN,bolt
182,16,coffeepot,0.933559626981,left,1,correct,path,1,path1,bolt
183,16,mosquito,0.450242921012,left,1,correct,path,2,path2,bolt
184,16,canoe,0.114418446028,right,1,correct,path,3,path3,bolt
185,16,domino,6.31684569421,left,1,correct,decision,1,decision1,bolt
186,16,ambulance,0.750232205028,right,1,correct,arm1,1,arm11,bolt
187,16,trunk,0.666892859677,left,1,correct,arm1,2,arm12,bolt
188,16,peach,0.300257938507,left,1,correct,arm1,3,arm13,bolt
189,16,garlic,1.80038969999,right,1,correct,decision,2,decision2,bolt
190,16,mug,0.916872559639,right,1,correct,arm2,1,arm21,bolt
191,16,branch,0.166901160846,left,1,correct,arm2,2,arm22,bolt
192,16,bolt,0.266897085705,right,1,correct,arm2,3,arm23,bolt
193,17,bolt,0.6836460341,space,0,wrong,target,NaN,targetNaN,bolt
194,17,coffeepot,1.56687248417,left,0,wrong,path,1,path1,bolt
195,17,mosquito,0.417001000664,left,0,wrong,path,2,path2,bolt
196,17,canoe,0.11408549553,right,0,wrong,path,3,path3,bolt
197,17,goose,0.150567872275,right,0,wrong,decision,1,decision1,bolt
198,17,sailor,2.05029695376,left,0,wrong,arm1,1,arm11,bolt
199,17,cooker,0.900274540763,right,0,wrong,arm1,2,arm12,bolt
200,17,tooth,0.250280049688,left,0,wrong,arm1,3,arm13,bolt
201,17,garlic,3.41690138722,left,0,wrong,decision,2,decision2,bolt
202,17,mug,0.700266390573,right,0,wrong,arm2,1,arm21,bolt
203,17,branch,0.250275823637,left,0,wrong,arm2,2,arm22,bolt
204,17,bolt,0.166913235153,right,0,wrong,arm2,3,arm23,bolt
205,18,bolt,0.750326083158,space,-1,miss,target,NaN,targetNaN,bolt
206,18,coffeepot,6.50013840239,left,-1,miss,path,1,path1,bolt
207,18,mosquito,0.16691836674,left,-1,miss,path,2,path2,bolt
208,18,canoe,0.113846121356,right,-1,miss,path,3,path3,bolt
209,18,domino,5.11685595737,right,-1,miss,decision,1,decision1,bolt
210,18,ambulance,1.30024526041,right,-1,miss,arm1,1,arm11,bolt
211,18,trunk,0.383550193859,left,-1,miss,arm1,2,arm12,bolt
212,18,peach,0.233734252397,left,-1,miss,arm1,3,arm13,bolt
213,18,crutches,5.36690629239,left,-1,miss,decision,2,decision2,bolt
214,18,stapler,0.966904179368,right,-1,miss,arm2,1,arm21,bolt
215,18,rose,1.11688553961,right,-1,miss,arm2,2,arm22,bolt
216,18,lion,0.133535176399,left,-1,miss,arm2,3,arm23,bolt
217,19,lion,0.533623017312,space,-1,miss,target,NaN,targetNaN,lion
218,19,coffeepot,0.833581209881,left,-1,miss,path,1,path1,lion
219,19,mosquito,0.25023356342,left,-1,miss,path,2,path2,lion
220,19,canoe,0.267009679112,right,-1,miss,path,3,path3,lion
221,19,goose,2.3504954261,right,-1,miss,decision,1,decision1,lion
222,19,sailor,1.08383982757,left,-1,miss,arm1,1,arm11,lion
223,19,cooker,0.483618866769,right,-1,miss,arm1,2,arm12,lion
224,19,tooth,0.333368550171,left,-1,miss,arm1,3,arm13,lion
225,19,garlic,0.0336180366576,right,-1,miss,decision,2,decision2,lion
226,19,mug,1.70033129025,right,-1,miss,arm2,1,arm21,lion
227,19,branch,0.450247147062,left,-1,miss,arm2,2,arm22,lion
228,19,bolt,0.300248279003,right,-1,miss,arm2,3,arm23,lion
229,20,bolt,2.55047188106,space,-1,miss,target,NaN,targetNaN,bolt
230,20,coffeepot,2.98354264739,left,-1,miss,path,1,path1,bolt
231,20,mosquito,0.316916631069,left,-1,miss,path,2,path2,bolt
232,20,canoe,0.200073955464,right,-1,miss,path,3,path3,bolt
233,20,domino,1.100291143,left,-1,miss,decision,1,decision1,bolt
234,20,ambulance,1.26692485675,right,-1,miss,arm1,1,arm11,bolt
235,20,trunk,0.316903651168,left,-1,miss,arm1,2,arm12,bolt
236,20,peach,0.500235299114,left,-1,miss,arm1,3,arm13,bolt
237,20,crutches,2.45020971651,left,-1,miss,decision,2,decision2,bolt
238,20,stapler,0.850385398488,right,-1,miss,arm2,1,arm21,bolt
239,20,rose,0.58369538805,right,-1,miss,arm2,2,arm22,bolt
240,20,lion,0.43369953864,left,-1,miss,arm2,3,arm23,bolt
241,21,lion,0.883655693615,space,-1,miss,target,NaN,targetNaN,lion
242,21,coffeepot,0.883810547239,left,-1,miss,path,1,path1,lion
243,21,mosquito,0.600239676074,left,-1,miss,path,2,path2,lion
244,21,canoe,0.11418058112,right,-1,miss,path,3,path3,lion
245,21,domino,2.05023809132,right,-1,miss,decision,1,decision1,lion
246,21,ambulance,5.90016436222,right,-1,miss,arm1,1,arm11,lion
247,21,trunk,0.417060466891,left,-1,miss,arm1,2,arm12,lion
248,21,peach,0.233572757803,left,-1,miss,arm1,3,arm13,lion
249,21,garlic,3.81693489355,right,-1,miss,decision,2,decision2,lion
250,21,mug,0.817105443857,right,-1,miss,arm2,1,arm21,lion
251,21,branch,0.533678559412,left,-1,miss,arm2,2,arm22,lion
252,21,bolt,0.183555929165,right,-1,miss,arm2,3,arm23,lion
253,22,lion,0.716930214723,space,-1,miss,target,NaN,targetNaN,lion
254,22,coffeepot,1.46691097121,left,-1,miss,path,1,path1,lion
255,22,mosquito,0.38360694336,left,-1,miss,path,2,path2,lion
256,22,canoe,0.113321490353,right,-1,miss,path,3,path3,lion
257,22,goose,0.83342997852,left,-1,miss,decision,1,decision1,lion
258,22,sailor,1.55025816493,left,-1,miss,arm1,1,arm11,lion
259,22,cooker,2.26688199275,right,-1,miss,arm1,2,arm12,lion
260,22,tooth,0.250225715048,left,-1,miss,arm1,3,arm13,lion
261,22,garlic,2.1169217627,left,-1,miss,decision,2,decision2,lion
262,22,mug,0.800287973485,right,-1,miss,arm2,1,arm21,lion
263,22,branch,0.600417772832,left,-1,miss,arm2,2,arm22,lion
264,22,bolt,0.216942741885,right,-1,miss,arm2,3,arm23,lion
265,23,bolt,0.533662258997,space,-1,miss,target,NaN,targetNaN,bolt
266,23,coffeepot,1.11694108165,left,-1,miss,path,1,path1,bolt
267,23,mosquito,0.601054997242,left,-1,miss,path,2,path2,bolt
268,23,canoe,0.112627214694,right,-1,miss,path,3,path3,bolt
269,23,domino,1.48364693968,left,-1,miss,decision,1,decision1,bolt
270,23,ambulance,0.800714500248,right,-1,miss,arm1,1,arm11,bolt
271,23,trunk,0.800239977951,left,-1,miss,arm1,2,arm12,bolt
272,23,peach,0.984386041411,left,-1,miss,arm1,3,arm13,bolt
273,23,crutches,2.51693353517,left,-1,miss,decision,2,decision2,bolt
274,23,stapler,0.550241864519,right,-1,miss,arm2,1,arm21,bolt
275,23,rose,1.23348250194,right,-1,miss,arm2,2,arm22,bolt
276,23,lion,1.16689874593,left,-1,miss,arm2,3,arm23,bolt
277,24,lion,0.216956929245,space,1,correct,target,NaN,targetNaN,lion
278,24,coffeepot,1.71720913245,left,1,correct,path,1,path1,lion
279,24,mosquito,0.150246392412,left,1,correct,path,2,path2,lion
280,24,canoe,0.114565451338,right,1,correct,path,3,path3,lion
281,24,goose,3.50037385232,right,1,correct,decision,1,decision1,lion
282,24,sailor,1.5002340916,left,1,correct,arm1,1,arm11,lion
283,24,cooker,0.683571776783,right,1,correct,arm1,2,arm12,lion
284,24,tooth,0.166896029143,left,1,correct,arm1,3,arm13,lion
285,24,crutches,0.0504276587744,right,1,correct,decision,2,decision2,lion
286,24,stapler,1.21730768943,right,1,correct,arm2,1,arm21,lion
287,24,rose,1.96706084424,right,1,correct,arm2,2,arm22,lion
288,24,lion,0.133588303579,left,1,correct,arm2,3,arm23,lion
289,25,lion,1.10039709549,space,1,correct,target,NaN,targetNaN,lion
290,25,coffeepot,1.90016285295,left,1,correct,path,1,path1,lion
291,25,mosquito,0.450264956744,left,1,correct,path,2,path2,lion
292,25,canoe,0.114217106078,right,1,correct,path,3,path3,lion
293,25,goose,1.71689459536,right,1,correct,decision,1,decision1,lion
294,25,sailor,4.58353027113,left,1,correct,arm1,1,arm11,lion
295,25,cooker,0.63360777346,right,1,correct,arm1,2,arm12,lion
296,25,tooth,0.233661202539,left,1,correct,arm1,3,arm13,lion
297,25,crutches,2.01751657581,right,1,correct,decision,2,decision2,lion
298,25,stapler,0.816923121049,right,1,correct,arm2,1,arm21,lion
299,25,rose,1.70023711026,right,1,correct,arm2,2,arm22,lion
300,25,lion,0.40024541138,left,1,correct,arm2,3,arm23,lion
301,26,lion,3.58354747714,space,0,wrong,target,NaN,targetNaN,lion
302,26,coffeepot,1.51687588013,left,0,wrong,path,1,path1,lion
303,26,mosquito,0.53395717527,left,0,wrong,path,2,path2,lion
304,26,canoe,0.113769147312,right,0,wrong,path,3,path3,lion
305,26,domino,1.23370195349,left,0,wrong,decision,1,decision1,lion
306,26,ambulance,2.21687723848,right,0,wrong,arm1,1,arm11,lion
307,26,trunk,0.800332044892,left,0,wrong,arm1,2,arm12,lion
308,26,peach,1.26689648197,left,0,wrong,arm1,3,arm13,lion
309,26,crutches,2.08429382351,left,0,wrong,decision,2,decision2,lion
310,26,stapler,0.733633884287,right,0,wrong,arm2,1,arm21,lion
311,26,rose,0.733548156335,right,0,wrong,arm2,2,arm22,lion
312,26,lion,0.216936704703,left,0,wrong,arm2,3,arm23,lion
313,27,bolt,0.950589002343,space,-1,miss,target,NaN,targetNaN,bolt
314,27,coffeepot,1.90022654517,left,-1,miss,path,1,path1,bolt
315,27,mosquito,0.133861485985,left,-1,miss,path,2,path2,bolt
316,27,canoe,0.113321792276,right,-1,miss,path,3,path3,bolt
317,27,goose,1.51698304003,left,-1,miss,decision,1,decision1,bolt
318,27,sailor,1.58355743845,left,-1,miss,arm1,1,arm11,bolt
319,27,cooker,0.300259447831,right,-1,miss,arm1,2,arm12,bolt
320,27,tooth,0.20024661877,left,-1,miss,arm1,3,arm13,bolt
321,27,crutches,0.83360415115,right,-1,miss,decision,2,decision2,bolt
322,27,stapler,7.08349751949,right,-1,miss,arm2,1,arm21,bolt
323,27,rose,0.433592378686,right,-1,miss,arm2,2,arm22,bolt
324,27,lion,0.333583775675,left,-1,miss,arm2,3,arm23,bolt
325,28,bolt,0.000317555677611,space,1,correct,target,NaN,targetNaN,bolt
326,28,coffeepot,1.7839115191,left,1,correct,path,1,path1,bolt
327,28,mosquito,0.266980096931,left,1,correct,path,2,path2,bolt
328,28,canoe,0.113638744224,right,1,correct,path,3,path3,bolt
329,28,domino,1.01688176632,left,1,correct,decision,1,decision1,bolt
330,28,ambulance,0.650271295744,right,1,correct,arm1,1,arm11,bolt
331,28,trunk,0.650560476701,left,1,correct,arm1,2,arm12,bolt
332,28,peach,0.167333724734,left,1,correct,arm1,3,arm13,bolt
333,28,garlic,1.33361033932,right,1,correct,decision,2,decision2,bolt
334,28,mug,3.31686923921,right,1,correct,arm2,1,arm21,bolt
335,28,branch,0.466878672305,left,1,correct,arm2,2,arm22,bolt
336,28,bolt,0.18351970613,right,1,correct,arm2,3,arm23,bolt
337,29,bolt,1.06719109637,space,0,wrong,target,NaN,targetNaN,bolt
338,29,coffeepot,1.25023235596,left,0,wrong,path,1,path1,bolt
339,29,mosquito,0.41693398793,left,0,wrong,path,2,path2,bolt
340,29,canoe,0.114202918659,right,0,wrong,path,3,path3,bolt
341,29,goose,0.0502399023972,right,0,wrong,decision,1,decision1,bolt
342,29,sailor,7.51685807039,left,0,wrong,arm1,1,arm11,bolt
343,29,cooker,1.36690025521,right,0,wrong,arm1,2,arm12,bolt
344,29,tooth,0.183578870434,left,0,wrong,arm1,3,arm13,bolt
345,29,garlic,2.23354921286,left,0,wrong,decision,2,decision2,bolt
346,29,mug,0.966901160777,right,0,wrong,arm2,1,arm21,bolt
347,29,branch,0.50026639062,left,0,wrong,arm2,2,arm22,bolt
348,29,bolt,1.01687663473,right,0,wrong,arm2,3,arm23,bolt
349,30,lion,11.4334643905,space,1,correct,target,NaN,targetNaN,lion
350,30,coffeepot,3.23355766491,left,1,correct,path,1,path1,lion
351,30,mosquito,0.266904934018,left,1,correct,path,2,path2,lion
352,30,canoe,0.114251517982,right,1,correct,path,3,path3,lion
353,30,goose,0.0503026891383,right,1,correct,decision,1,decision1,lion
354,30,sailor,11.3673119909,left,1,correct,arm1,1,arm11,lion
355,30,cooker,1.5002063206,right,1,correct,arm1,2,arm12,lion
356,30,tooth,0.350230092008,left,1,correct,arm1,3,arm13,lion
357,30,crutches,2.88358505856,right,1,correct,decision,2,decision2,lion
358,30,stapler,5.9334968403,right,1,correct,arm2,1,arm21,lion
359,30,rose,0.616911046731,right,1,correct,arm2,2,arm22,lion
360,30,lion,0.983721347875,left,1,correct,arm2,3,arm23,lion
361,31,bolt,0.800281936303,space,1,correct,target,NaN,targetNaN,bolt
362,31,coffeepot,1.30027725751,left,1,correct,path,1,path1,bolt
363,31,mosquito,0.966896934784,left,1,correct,path,2,path2,bolt
364,31,canoe,1.25023265783,right,1,correct,path,3,path3,bolt
365,31,domino,3.96697089024,left,1,correct,decision,1,decision1,bolt
366,31,ambulance,2.58361962147,right,1,correct,arm1,1,arm11,bolt
367,31,trunk,0.65023386525,left,1,correct,arm1,2,arm12,bolt
368,31,peach,0.500264277565,left,1,correct,arm1,3,arm13,bolt
369,31,garlic,1.46684848639,left,1,correct,decision,2,decision2,bolt
370,31,mug,1.45025076933,right,1,correct,arm2,1,arm21,bolt
371,31,branch,0.600286464207,left,1,correct,arm2,2,arm22,bolt
372,31,bolt,0.783590039238,right,1,correct,arm2,3,arm23,bolt
373,32,lion,0.65032774338,space,1,correct,target,NaN,targetNaN,lion
374,32,coffeepot,3.41687059758,left,1,correct,path,1,path1,lion
375,32,mosquito,0.950291369401,left,1,correct,path,2,path2,lion
376,32,canoe,0.583573135198,right,1,correct,path,3,path3,lion
377,32,goose,2.68357177684,left,1,correct,decision,1,decision1,lion
378,32,sailor,0.916889765649,left,1,correct,arm1,1,arm11,lion
379,32,cooker,0.500241939968,right,1,correct,arm1,2,arm12,lion
380,32,tooth,0.30083147058,left,1,correct,arm1,3,arm13,lion
381,32,crutches,1.05026525859,left,1,correct,decision,2,decision2,lion
382,32,stapler,1.05044426094,right,1,correct,arm2,1,arm21,lion
383,32,rose,0.800232733309,right,1,correct,arm2,2,arm22,lion
384,32,lion,0.283633657906,left,1,correct,arm2,3,arm23,lion
385,33,bolt,0.633667541551,space,1,correct,target,NaN,targetNaN,bolt
386,33,coffeepot,2.53371448064,left,1,correct,path,1,path1,bolt
387,33,mosquito,0.183577663032,left,1,correct,path,2,path2,bolt
388,33,canoe,0.114289250341,right,1,correct,path,3,path3,bolt
389,33,domino,1.38360996195,left,1,correct,decision,1,decision1,bolt
390,33,ambulance,1.71691421617,right,1,correct,arm1,1,arm11,bolt
391,33,trunk,0.216966286884,left,1,correct,arm1,2,arm12,bolt
392,33,peach,0.21709004906,left,1,correct,arm1,3,arm13,bolt
393,33,garlic,1.43363977049,right,1,correct,decision,2,decision2,bolt
394,33,mug,5.5668483355,right,1,correct,arm2,1,arm21,bolt
395,33,branch,0.517067560577,left,1,correct,arm2,2,arm22,bolt
396,33,bolt,0.183743383619,right,1,correct,arm2,3,arm23,bolt
397,34,lion,0.83367327688,space,-1,miss,target,NaN,targetNaN,lion
398,34,coffeepot,2.15003327996,left,-1,miss,path,1,path1,lion
399,34,mosquito,0.433560985315,left,-1,miss,path,2,path2,lion
400,34,canoe,0.833612603194,right,-1,miss,path,3,path3,lion
401,34,domino,2.8011247266,left,-1,miss,decision,1,decision1,lion
402,34,ambulance,0.567188530578,right,-1,miss,arm1,1,arm11,lion
403,34,trunk,0.483605585003,left,-1,miss,arm1,2,arm12,lion
404,34,peach,0.116893991653,left,-1,miss,arm1,3,arm13,lion
405,34,garlic,0.833599321428,right,-1,miss,decision,2,decision2,lion
406,34,mug,0.916920253367,right,-1,miss,arm2,1,arm21,lion
407,34,branch,0.483661127044,left,-1,miss,arm2,2,arm22,lion
408,34,bolt,0.23377047549,right,-1,miss,arm2,3,arm23,lion
409,35,bolt,1.26698220993,space,1,correct,target,NaN,targetNaN,bolt
410,35,coffeepot,2.30023831764,left,1,correct,path,1,path1,bolt
411,35,mosquito,0.250246543321,left,1,correct,path,2,path2,bolt
412,35,canoe,0.233615621808,right,1,correct,path,3,path3,bolt
413,35,domino,1.56695549539,left,1,correct,decision,1,decision1,bolt
414,35,ambulance,0.7669766256,right,1,correct,arm1,1,arm11,bolt
415,35,trunk,0.500284803973,left,1,correct,arm1,2,arm12,bolt
416,35,peach,0.283772814902,left,1,correct,arm1,3,arm13,bolt
417,35,garlic,2.43363011099,right,1,correct,decision,2,decision2,bolt
418,35,mug,0.800293406937,right,1,correct,arm2,1,arm21,bolt
419,35,branch,0.367419754562,left,1,correct,arm2,2,arm22,bolt
420,35,bolt,0.200335365313,right,1,correct,arm2,3,arm23,bolt
421,36,bolt,0.350415433408,space,1,correct,target,NaN,targetNaN,bolt
422,36,coffeepot,1.40024510951,left,1,correct,path,1,path1,bolt
423,36,mosquito,0.250284879468,left,1,correct,path,2,path2,bolt
424,36,canoe,0.200264428509,right,1,correct,path,3,path3,bolt
425,36,domino,0.550313706917,left,1,correct,decision,1,decision1,bolt
426,36,ambulance,0.633614414372,right,1,correct,arm1,1,arm11,bolt
427,36,trunk,0.68363003555,left,1,correct,arm1,2,arm12,bolt
428,36,peach,0.300253712514,left,1,correct,arm1,3,arm13,bolt
429,36,garlic,0.900223828445,left,1,correct,decision,2,decision2,bolt
430,36,mug,1.35026933369,right,1,correct,arm2,1,arm21,bolt
431,36,branch,0.483555476414,left,1,correct,arm2,2,arm22,bolt
432,36,bolt,0.333565664128,right,1,correct,arm2,3,arm23,bolt
433,37,bolt,0.3169987367,space,1,correct,target,NaN,targetNaN,bolt
434,37,coffeepot,1.53358226636,left,1,correct,path,1,path1,bolt
435,37,mosquito,0.650466900377,left,1,correct,path,2,path2,bolt
436,37,canoe,0.113915548893,right,1,correct,path,3,path3,bolt
437,37,domino,2.25024805265,left,1,correct,decision,1,decision1,bolt
438,37,ambulance,0.833597510238,right,1,correct,arm1,1,arm11,bolt
439,37,trunk,0.500251297606,left,1,correct,arm1,2,arm12,bolt
440,37,peach,0.283573286084,left,1,correct,arm1,3,arm13,bolt
441,37,garlic,4.95023431804,left,1,correct,decision,2,decision2,bolt
442,37,mug,1.08356694703,right,1,correct,arm2,1,arm21,bolt
443,37,branch,0.533582568285,left,1,correct,arm2,2,arm22,bolt
444,37,bolt,0.250420716009,right,1,correct,arm2,3,arm23,bolt
445,38,lion,1.88366565498,space,1,correct,target,NaN,targetNaN,lion
446,38,coffeepot,1.15103997971,left,1,correct,path,1,path1,lion
447,38,mosquito,0.100226243376,left,1,correct,path,2,path2,lion
448,38,canoe,0.114261177427,right,1,correct,path,3,path3,lion
449,38,goose,2.81699103932,left,1,correct,decision,1,decision1,lion
450,38,sailor,1.28357449354,left,1,correct,arm1,1,arm11,lion
451,38,cooker,0.316922668251,right,1,correct,arm1,2,arm12,lion
452,38,tooth,0.416910141124,left,1,correct,arm1,3,arm13,lion
453,38,crutches,4.60039603902,left,1,correct,decision,2,decision2,lion
454,38,stapler,0.983568305383,right,1,correct,arm2,1,arm21,lion
455,38,rose,1.10024193994,right,1,correct,arm2,2,arm22,lion
456,38,lion,0.333580153354,left,1,correct,arm2,3,arm23,lion
457,39,bolt,1.8336566746,space,1,correct,target,NaN,targetNaN,bolt
458,39,coffeepot,0.900251599494,left,1,correct,path,1,path1,bolt
459,39,mosquito,0.166899349657,left,1,correct,path,2,path2,bolt
460,39,canoe,0.200578059943,right,1,correct,path,3,path3,bolt
461,39,domino,1.03361290507,right,1,correct,decision,1,decision1,bolt
462,39,ambulance,1.75027959689,right,1,correct,arm1,1,arm11,bolt
463,39,trunk,0.500409471744,left,1,correct,arm1,2,arm12,bolt
464,39,peach,0.216872408753,left,1,correct,arm1,3,arm13,bolt
465,39,garlic,6.36685799493,left,1,correct,decision,2,decision2,bolt
466,39,mug,1.13398585183,right,1,correct,arm2,1,arm21,bolt
467,39,branch,0.416963872034,left,1,correct,arm2,2,arm22,bolt
468,39,bolt,0.18355502357,right,1,correct,arm2,3,arm23,bolt
469,40,lion,2.51773195225,space,1,correct,target,NaN,targetNaN,lion
470,40,coffeepot,0.600300953432,left,1,correct,path,1,path1,lion
471,40,mosquito,0.183585209481,left,1,correct,path,2,path2,lion
472,40,canoe,0.183594265312,right,1,correct,path,3,path3,lion
473,40,goose,0.816986511403,right,1,correct,decision,1,decision1,lion
474,40,sailor,1.13367946498,left,1,correct,arm1,1,arm11,lion
475,40,cooker,0.317028017074,right,1,correct,arm1,2,arm12,lion
476,40,tooth,0.250396869145,left,1,correct,arm1,3,arm13,lion
477,40,crutches,0.883633356018,right,1,correct,decision,2,decision2,lion
478,40,stapler,3.66811901092,right,1,correct,arm2,1,arm21,lion
479,40,rose,0.483538270462,right,1,correct,arm2,2,arm22,lion
480,40,lion,0.250527574099,left,1,correct,arm2,3,arm23,lion
481,41,lion,0.900356948317,space,1,correct,target,NaN,targetNaN,lion
482,41,coffeepot,1.80022639426,left,1,correct,path,1,path1,lion
483,41,mosquito,0.083587473433,left,1,correct,path,2,path2,lion
484,41,canoe,0.133578342211,right,1,correct,path,3,path3,lion
485,41,goose,0.850827621878,right,1,correct,decision,1,decision1,lion
486,41,sailor,4.21686123993,left,1,correct,arm1,1,arm11,lion
487,41,cooker,0.416901085351,right,1,correct,arm1,2,arm12,lion
488,41,tooth,0.216932780517,left,1,correct,arm1,3,arm13,lion
489,41,crutches,5.30021024478,right,1,correct,decision,2,decision2,lion
490,41,stapler,1.21690983925,right,1,correct,arm2,1,arm21,lion
491,41,rose,0.883591699472,right,1,correct,arm2,2,arm22,lion
492,41,lion,0.350288350775,left,1,correct,arm2,3,arm23,lion
493,42,bolt,2.5170926149,space,1,correct,target,NaN,targetNaN,bolt
494,42,coffeepot,2.08367984236,left,1,correct,path,1,path1,bolt
495,42,mosquito,0.233756589936,left,1,correct,path,2,path2,bolt
496,42,canoe,0.113095398003,right,1,correct,path,3,path3,bolt
497,42,domino,0.966971795773,left,1,correct,decision,1,decision1,bolt
498,42,ambulance,0.750938253244,right,1,correct,arm1,1,arm11,bolt
499,42,trunk,0.51697036199,left,1,correct,arm1,2,arm12,bolt
500,42,peach,0.217479145271,left,1,correct,arm1,3,arm13,bolt
501,42,garlic,3.98358883179,left,1,correct,decision,2,decision2,bolt
502,42,mug,0.783616904693,right,1,correct,arm2,1,arm21,bolt
503,42,branch,0.683591095731,left,1,correct,arm2,2,arm22,bolt
504,42,bolt,0.333571097581,right,1,correct,arm2,3,arm23,bolt
505,43,lion,1.88367018284,space,1,correct,target,NaN,targetNaN,lion
506,43,coffeepot,3.86686629604,left,1,correct,path,1,path1,lion
507,43,mosquito,0.516951043042,left,1,correct,path,2,path2,lion
508,43,canoe,0.400227903563,right,1,correct,path,3,path3,lion
509,43,goose,1.01695360884,right,1,correct,decision,1,decision1,lion
510,43,sailor,2.56700017053,left,1,correct,arm1,1,arm11,lion
511,43,cooker,1.06694870361,right,1,correct,arm1,2,arm12,lion
512,43,tooth,0.200235751923,left,1,correct,arm1,3,arm13,lion
513,43,crutches,1.95070250134,left,1,correct,decision,2,decision2,lion
514,43,stapler,0.500276050065,right,1,correct,arm2,1,arm21,lion
515,43,rose,0.766885766003,right,1,correct,arm2,2,arm22,lion
516,43,lion,0.166922592791,left,1,correct,arm2,3,arm23,lion
517,44,lion,4.91694953368,space,1,correct,target,NaN,targetNaN,lion
518,44,coffeepot,0.616908028082,left,1,correct,path,1,path1,lion
519,44,mosquito,0.633596302825,left,1,correct,path,2,path2,lion
520,44,canoe,0.23356913554,right,1,correct,path,3,path3,lion
521,44,goose,7.93352762988,right,1,correct,decision,1,decision1,lion
522,44,sailor,1.26690765074,left,1,correct,arm1,1,arm11,lion
523,44,cooker,0.233991134446,right,1,correct,arm1,2,arm12,lion
524,44,tooth,0.283575399138,left,1,correct,arm1,3,arm13,lion
525,44,crutches,3.43364550581,right,1,correct,decision,2,decision2,lion
526,44,stapler,1.61692040431,right,1,correct,arm2,1,arm21,lion
527,44,rose,0.883548835467,right,1,correct,arm2,2,arm22,lion
528,44,lion,0.333565664128,left,1,correct,arm2,3,arm23,lion
529,45,bolt,1.16731410392,space,0,wrong,target,NaN,targetNaN,bolt
530,45,coffeepot,2.8835473262,left,0,wrong,path,1,path1,bolt
531,45,mosquito,0.216906518792,left,0,wrong,path,2,path2,bolt
532,45,canoe,0.183564683131,right,0,wrong,path,3,path3,bolt
533,45,goose,7.18352423399,right,0,wrong,decision,1,decision1,bolt
534,45,sailor,1.36693949689,left,0,wrong,arm1,1,arm11,bolt
535,45,cooker,0.317170796392,right,0,wrong,arm1,2,arm12,bolt
536,45,tooth,0.200224583095,left,0,wrong,arm1,3,arm13,bolt
537,45,garlic,1.0670000196,left,0,wrong,decision,2,decision2,bolt
538,45,mug,0.484143497772,right,0,wrong,arm2,1,arm21,bolt
539,45,branch,0.200272276823,left,0,wrong,arm2,2,arm22,bolt
540,45,bolt,0.250363362778,right,0,wrong,arm2,3,arm23,bolt
541,46,lion,0.566878823214,space,1,correct,target,NaN,targetNaN,lion
542,46,coffeepot,1.33357411623,left,1,correct,path,1,path1,lion
543,46,mosquito,0.916921158961,left,1,correct,path,2,path2,lion
544,46,canoe,0.113638744224,right,1,correct,path,3,path3,lion
545,46,goose,1.71694198722,left,1,correct,decision,1,decision1,lion
546,46,sailor,1.15028231358,left,1,correct,arm1,1,arm11,lion
547,46,cooker,0.150241562689,right,1,correct,arm1,2,arm12,lion
548,46,tooth,0.167816699133,left,1,correct,arm1,3,arm13,lion
549,46,crutches,0.700355740846,right,1,correct,decision,2,decision2,lion
550,46,stapler,1.48359622736,right,1,correct,arm2,1,arm21,lion
551,46,rose,0.650264353026,right,1,correct,arm2,2,arm22,lion
552,46,lion,0.700261862716,left,1,correct,arm2,3,arm23,lion
553,47,bolt,0.716994812596,space,1,correct,target,NaN,targetNaN,bolt
554,47,coffeepot,1.80030819803,left,1,correct,path,1,path1,bolt
555,47,mosquito,0.133612754173,left,1,correct,path,2,path2,bolt
556,47,canoe,0.113688852813,right,1,correct,path,3,path3,bolt
557,47,domino,1.28368135163,right,1,correct,decision,1,decision1,bolt
558,47,ambulance,7.35016881465,right,1,correct,arm1,1,arm11,bolt
559,47,trunk,0.600246316986,left,1,correct,arm1,2,arm12,bolt
560,47,peach,0.333743157214,left,1,correct,arm1,3,arm13,bolt
561,47,garlic,2.16705118469,left,1,correct,decision,2,decision2,bolt
562,47,mug,0.916908179002,right,1,correct,arm2,1,arm21,bolt
563,47,branch,0.517070277303,left,1,correct,arm2,2,arm22,bolt
564,47,bolt,0.216937308433,right,1,correct,arm2,3,arm23,bolt
565,48,bolt,1.01696809806,space,1,correct,target,NaN,targetNaN,bolt
566,48,coffeepot,1.96692440391,left,1,correct,path,1,path1,bolt
567,48,mosquito,0.133718102938,left,1,correct,path,2,path2,bolt
568,48,canoe,0.166914140747,right,1,correct,path,3,path3,bolt
569,48,domino,0.833427261794,right,1,correct,decision,1,decision1,bolt
570,48,ambulance,0.816933384282,right,1,correct,arm1,1,arm11,bolt
571,48,trunk,0.48374413827,left,1,correct,arm1,2,arm12,bolt
572,48,peach,0.133604603994,left,1,correct,arm1,3,arm13,bolt
573,48,garlic,1.53411172709,left,1,correct,decision,2,decision2,bolt
574,48,mug,1.10028903,right,1,correct,arm2,1,arm21,bolt
575,48,branch,0.533583473822,left,1,correct,arm2,2,arm22,bolt
576,48,bolt,0.166917159338,right,1,correct,arm2,3,arm23,bolt
577,49,lion,3.66696560767,space,1,correct,target,NaN,targetNaN,lion
578,49,coffeepot,0.766914140724,left,1,correct,path,1,path1,lion
579,49,mosquito,0.116923573834,left,1,correct,path,2,path2,lion
580,49,canoe,0.100243751134,right,1,correct,path,3,path3,lion
581,49,goose,0.667005754949,left,1,correct,decision,1,decision1,lion
582,49,sailor,1.60026684334,left,1,correct,arm1,1,arm11,lion
583,49,cooker,0.216937308433,right,1,correct,arm1,2,arm12,lion
584,49,tooth,0.266926064156,left,1,correct,arm1,3,arm13,lion
585,49,crutches,4.26691429166,left,1,correct,decision,2,decision2,lion
586,49,stapler,0.600340195117,right,1,correct,arm2,1,arm21,lion
587,49,rose,0.483560608001,right,1,correct,arm2,2,arm22,lion
588,49,lion,0.233702255355,left,1,correct,arm2,3,arm23,lion
589,50,lion,6.5002543162,space,1,correct,target,NaN,targetNaN,lion
590,50,coffeepot,0.683564834006,left,1,correct,path,1,path1,lion
591,50,mosquito,0.216959947837,left,1,correct,path,2,path2,lion
592,50,canoe,0.38364286453,right,1,correct,path,3,path3,lion
593,50,goose,1.0836188668,right,1,correct,decision,1,decision1,lion
594,50,sailor,1.58383575251,left,1,correct,arm1,1,arm11,lion
595,50,cooker,0.23367357871,right,1,correct,arm1,2,arm12,lion
596,50,tooth,0.200254769006,left,1,correct,arm1,3,arm13,lion
597,50,crutches,1.50025461806,right,1,correct,decision,2,decision2,lion
598,50,stapler,4.16688727523,right,1,correct,arm2,1,arm21,lion
599,50,rose,0.616953005083,right,1,correct,arm2,2,arm22,lion
600,50,lion,0.583707160549,left,1,correct,arm2,3,arm23,lion
