pic_index,trial_num,pic_name,rt,resp,feedback_code,feedback,segment,segment_index,pic_type,trial_target
1,1,bolt,1.26703640392,space,1,correct,target,NaN,targetNaN,bolt
2,1,coffeepot,2.43355249316,left,1,correct,path,1,path1,bolt
3,1,mosquito,0.516935960273,left,1,correct,path,2,path2,bolt
4,1,canoe,0.133636983545,right,1,correct,path,3,path3,bolt
5,1,domino,1.20024764527,left,1,correct,decision,1,decision1,bolt
6,1,ambulance,1.63352242799,left,1,correct,arm1,1,arm11,bolt
7,1,trunk,0.0169032085519,left,1,correct,arm1,2,arm12,bolt
8,1,peach,0.133644831884,left,1,correct,arm1,3,arm13,bolt
9,1,garlic,0.933708705287,right,1,correct,decision,2,decision2,bolt
10,1,mug,1.60021468225,right,1,correct,arm2,1,arm21,bolt
11,1,branch,0.416905261194,left,1,correct,arm2,2,arm22,bolt
12,1,bolt,0.0669028614138,right,1,correct,arm2,3,arm23,bolt
13,2,lion,5.01694818557,space,1,correct,target,NaN,targetNaN,lion
14,2,coffeepot,2.43354826713,left,1,correct,path,1,path1,lion
15,2,mosquito,0.400250784607,left,1,correct,path,2,path2,lion
16,2,canoe,0.083579373721,right,1,correct,path,3,path3,lion
17,2,goose,0.633632002869,right,1,correct,decision,1,decision1,lion
18,2,sailor,1.1003832706,left,1,correct,arm1,1,arm11,lion
19,2,cooker,0.0335975305502,left,1,correct,arm1,2,arm12,lion
20,2,tooth,0.117253878362,left,1,correct,arm1,3,arm13,lion
21,2,crutches,0.783565759872,left,1,correct,decision,2,decision2,lion
22,2,stapler,0.916911449307,right,1,correct,arm2,1,arm21,lion
23,2,rose,0.366913456671,right,1,correct,arm2,2,arm22,lion
24,2,lion,0.133666565745,left,1,correct,arm2,3,arm23,lion
25,3,lion,0.51702561245,space,1,correct,target,NaN,targetNaN,lion
26,3,coffeepot,2.03346048648,left,1,correct,path,1,path1,lion
27,3,mosquito,0.416905261194,left,1,correct,path,2,path2,lion
28,3,canoe,0.0669001446809,right,1,correct,path,3,path3,lion
29,3,goose,0.91674482304,right,1,correct,decision,1,decision1,lion
30,3,sailor,0.516976409403,left,1,correct,arm1,1,arm11,lion
31,3,cooker,0.0339301793674,left,1,correct,arm1,2,arm12,lion
32,3,tooth,0.0669590072212,left,1,correct,arm1,3,arm13,lion
33,3,crutches,0.750252882528,right,1,correct,decision,2,decision2,lion
34,3,stapler,0.517085682427,right,1,correct,arm2,1,arm21,lion
35,3,rose,0.400313873176,right,1,correct,arm2,2,arm22,lion
36,3,lion,0.116921229545,left,1,correct,arm2,3,arm23,lion
37,4,lion,0.867025899216,space,1,correct,target,NaN,targetNaN,lion
38,4,coffeepot,0.333592730989,left,1,correct,path,1,path1,lion
39,4,mosquito,0.450369671846,left,1,correct,path,2,path2,lion
40,4,canoe,0.133588686076,right,1,correct,path,3,path3,lion
41,4,goose,0.667041777009,right,1,correct,decision,1,decision1,lion
42,4,sailor,0.366939416561,left,1,correct,arm1,1,arm11,lion
43,4,cooker,0.100510957036,left,1,correct,arm1,2,arm12,lion
44,4,tooth,0.0835992964267,left,1,correct,arm1,3,arm13,lion
45,4,crutches,0.517023197576,right,1,correct,decision,2,decision2,lion
46,4,stapler,0.583652272713,right,1,correct,arm2,1,arm21,lion
47,4,rose,0.350329916992,right,1,correct,arm2,2,arm22,lion
48,4,lion,0.116935115067,left,1,correct,arm2,3,arm23,lion
49,5,bolt,1.13360830692,space,1,correct,target,NaN,targetNaN,bolt
50,5,coffeepot,0.23360640521,left,1,correct,path,1,path1,bolt
51,5,mosquito,0.750235676555,left,1,correct,path,2,path2,bolt
52,5,canoe,0.283598511593,right,1,correct,path,3,path3,bolt
53,5,domino,0.750302991153,left,1,correct,decision,1,decision1,bolt
54,5,ambulance,0.633589440724,left,1,correct,arm1,1,arm11,bolt
55,5,trunk,0.0336394889764,left,1,correct,arm1,2,arm12,bolt
56,5,peach,0.0667739675437,left,1,correct,arm1,3,arm13,bolt
57,5,garlic,0.50039045485,left,1,correct,decision,2,decision2,bolt
58,5,mug,0.78362884844,right,1,correct,arm2,1,arm21,bolt
59,5,branch,0.600349311444,left,1,correct,arm2,2,arm22,bolt
60,5,bolt,0.0170490065361,right,1,correct,arm2,3,arm23,bolt
61,6,bolt,0.667105469296,space,1,correct,target,NaN,targetNaN,bolt
62,6,coffeepot,0.233612744253,left,1,correct,path,1,path1,bolt
63,6,mosquito,0.616947038505,left,1,correct,path,2,path2,bolt
64,6,canoe,0.0502743447169,right,1,correct,path,3,path3,bolt
65,6,domino,0.63360181695,left,1,correct,decision,1,decision1,bolt
66,6,ambulance,0.600067978688,left,1,correct,arm1,1,arm11,bolt
67,6,trunk,0.166998460216,left,1,correct,arm1,2,arm12,bolt
68,6,peach,0.0503132845511,left,1,correct,arm1,3,arm13,bolt
69,6,garlic,0.78360681272,left,1,correct,decision,2,decision2,bolt
70,6,mug,1.08355613056,right,1,correct,arm2,1,arm21,bolt
71,6,branch,0.183634221534,left,1,correct,arm2,2,arm22,bolt
72,6,bolt,0.0669143320629,right,1,correct,arm2,3,arm23,bolt
73,7,bolt,0.750326838028,space,1,correct,target,NaN,targetNaN,bolt
74,7,coffeepot,0.283587644662,left,1,correct,path,1,path1,bolt
75,7,mosquito,0.667036645403,left,1,correct,path,2,path2,bolt
76,7,canoe,0.000242392922246,right,1,correct,path,3,path3,bolt
77,7,domino,0.450528147916,left,1,correct,decision,1,decision1,bolt
78,7,ambulance,0.48366383392,left,1,correct,arm1,1,arm11,bolt
79,7,trunk,0.267031574168,left,1,correct,arm1,2,arm12,bolt
80,7,peach,0.183685537595,left,1,correct,arm1,3,arm13,bolt
81,7,garlic,0.700224553044,right,1,correct,decision,2,decision2,bolt
82,7,mug,0.433664181057,right,1,correct,arm2,1,arm21,bolt
83,7,branch,0.0173653549577,left,1,correct,arm2,2,arm22,bolt
84,7,bolt,0.116939944814,right,1,correct,arm2,3,arm23,bolt
85,8,bolt,0.700452154867,space,1,correct,target,NaN,targetNaN,bolt
86,8,coffeepot,0.216927176171,left,1,correct,path,1,path1,bolt
87,8,mosquito,0.250258768783,left,1,correct,path,2,path2,bolt
88,8,canoe,0.233569880249,right,1,correct,path,3,path3,bolt
89,8,domino,0.533707860081,left,1,correct,decision,1,decision1,bolt
90,8,ambulance,0.76688713455,left,1,correct,arm1,1,arm11,bolt
91,8,trunk,0.0336002472832,left,1,correct,arm1,2,arm12,bolt
92,8,peach,0.133935220416,left,1,correct,arm1,3,arm13,bolt
93,8,garlic,1.16695680365,right,1,correct,decision,2,decision2,bolt
94,8,mug,0.700246286906,right,1,correct,arm2,1,arm21,bolt
95,8,branch,0.0169007936784,left,1,correct,arm2,2,arm22,bolt
96,8,bolt,0.0669753076172,right,1,correct,arm2,3,arm23,bolt
97,9,lion,1.31693402837,space,1,correct,target,NaN,targetNaN,lion
98,9,coffeepot,0.283612698975,left,1,correct,path,1,path1,lion
99,9,mosquito,0.217005961417,left,1,correct,path,2,path2,lion
100,9,canoe,0.0669641388276,right,1,correct,path,3,path3,lion
101,9,goose,0.450247720737,left,1,correct,decision,1,decision1,lion
102,9,sailor,0.733592972477,left,1,correct,arm1,1,arm11,lion
103,9,cooker,0.0669040688504,left,1,correct,arm1,2,arm12,lion
104,9,tooth,0.0835730346776,left,1,correct,arm1,3,arm13,lion
105,9,crutches,0.450253154202,left,1,correct,decision,2,decision2,lion
106,9,stapler,0.583577411636,right,1,correct,arm2,1,arm21,lion
107,9,rose,0.333605409075,right,1,correct,arm2,2,arm22,lion
108,9,lion,0.0835537156904,left,1,correct,arm2,3,arm23,lion
109,10,bolt,0.383988423097,space,1,correct,target,NaN,targetNaN,bolt
110,10,coffeepot,0.150266707679,left,1,correct,path,1,path1,bolt
111,10,mosquito,0.350260187521,left,1,correct,path,2,path2,bolt
112,10,canoe,0.083565186339,right,1,correct,path,3,path3,bolt
113,10,domino,0.666983820046,left,1,correct,decision,1,decision1,bolt
114,10,ambulance,0.800266119054,left,1,correct,arm1,1,arm11,bolt
115,10,trunk,0.0336959366437,left,1,correct,arm1,2,arm12,bolt
116,10,peach,0.0836008057227,left,1,correct,arm1,3,arm13,bolt
117,10,garlic,0.683646446831,left,1,correct,decision,2,decision2,bolt
118,10,mug,2.20025941778,right,1,correct,arm2,1,arm21,bolt
119,10,branch,0.0502185007681,left,1,correct,arm2,2,arm22,bolt
120,10,bolt,0.0335779097036,right,1,correct,arm2,3,arm23,bolt
121,11,lion,0.633589742583,space,1,correct,target,NaN,targetNaN,lion
122,11,coffeepot,0.150229579,left,1,correct,path,1,path1,lion
123,11,mosquito,0.350232114617,left,1,correct,path,2,path2,lion
124,11,canoe,0.0836011075817,right,1,correct,path,3,path3,lion
125,11,goose,0.416907374208,right,1,correct,decision,1,decision1,lion
126,11,sailor,0.367064386261,left,1,correct,arm1,1,arm11,lion
127,11,cooker,0.533616396749,left,1,correct,arm1,2,arm12,lion
128,11,tooth,0.0335724762385,left,1,correct,arm1,3,arm13,lion
129,11,crutches,0.43358962184,left,1,correct,decision,2,decision2,lion
130,11,stapler,1.01692614985,right,1,correct,arm2,1,arm21,lion
131,11,rose,0.666902619926,right,1,correct,arm2,2,arm22,lion
132,11,lion,0.08356850679,left,1,correct,arm2,3,arm23,lion
133,12,bolt,0.500306839857,space,1,correct,target,NaN,targetNaN,bolt
134,12,coffeepot,0.150228975282,left,1,correct,path,1,path1,bolt
135,12,mosquito,0.650271084637,left,1,correct,path,2,path2,bolt
136,12,canoe,0.0169128680454,right,1,correct,path,3,path3,bolt
137,12,domino,0.55032098196,left,1,correct,decision,1,decision1,bolt
138,12,ambulance,0.500245864303,left,1,correct,arm1,1,arm11,bolt
139,12,trunk,0.033463203215,left,1,correct,arm1,2,arm12,bolt
140,12,peach,0.0502396309107,left,1,correct,arm1,3,arm13,bolt
141,12,garlic,0.833563601579,right,1,correct,decision,2,decision2,bolt
142,12,mug,0.483621573634,right,1,correct,arm2,1,arm21,bolt
143,12,branch,0.0337306504489,left,1,correct,arm2,2,arm22,bolt
144,12,bolt,0.0668784108202,right,1,correct,arm2,3,arm23,bolt
145,13,lion,0.83372147393,space,1,correct,target,NaN,targetNaN,lion
146,13,coffeepot,0.417033853205,left,1,correct,path,1,path1,lion
147,13,mosquito,0.350409305956,left,1,correct,path,2,path2,lion
148,13,canoe,0.0835911462286,right,1,correct,path,3,path3,lion
149,13,goose,0.283830339444,right,1,correct,decision,1,decision1,lion
150,13,sailor,0.400313269458,left,1,correct,arm1,1,arm11,lion
151,13,cooker,0.0836880430261,left,1,correct,arm1,2,arm12,lion
152,13,tooth,0.200264851245,left,1,correct,arm1,3,arm13,lion
153,13,crutches,1.16714516378,left,1,correct,decision,2,decision2,lion
154,13,stapler,0.733576068363,right,1,correct,arm2,1,arm21,lion
155,13,rose,0.116892251063,right,1,correct,arm2,2,arm22,lion
156,13,lion,0.116968621436,left,1,correct,arm2,3,arm23,lion
157,14,lion,1.08393586941,space,1,correct,target,NaN,targetNaN,lion
158,14,coffeepot,0.216893367943,left,1,correct,path,1,path1,lion
159,14,mosquito,0.266909019341,left,1,correct,path,2,path2,lion
160,14,canoe,0.0671162758545,right,1,correct,path,3,path3,lion
161,14,goose,0.533639036188,right,1,correct,decision,1,decision1,lion
162,14,sailor,0.283597304156,left,1,correct,arm1,1,arm11,lion
163,14,cooker,0.0835857127636,left,1,correct,arm1,2,arm12,lion
164,14,tooth,0.0670405092001,left,1,correct,arm1,3,arm13,lion
165,14,crutches,0.31694278229,left,1,correct,decision,2,decision2,lion
166,14,stapler,0.566909955104,right,1,correct,arm2,1,arm21,lion
167,14,rose,0.28362145289,right,1,correct,arm2,2,arm22,lion
168,14,lion,0.0677362946121,left,1,correct,arm2,3,arm23,lion
169,15,lion,0.800404068699,space,1,correct,target,NaN,targetNaN,lion
170,15,coffeepot,0.450359106775,left,1,correct,path,1,path1,lion
171,15,mosquito,0.183613091391,left,1,correct,path,2,path2,lion
172,15,canoe,0.233545127797,right,1,correct,path,3,path3,lion
173,15,goose,0.450480454165,right,1,correct,decision,1,decision1,lion
174,15,sailor,0.383655774279,left,1,correct,arm1,1,arm11,lion
175,15,cooker,0.300446479915,left,1,correct,arm1,2,arm12,lion
176,15,tooth,0.467260202312,left,1,correct,arm1,3,arm13,lion
177,15,crutches,0.667703150474,right,1,correct,decision,2,decision2,lion
178,15,stapler,0.533962931089,right,1,correct,arm2,1,arm21,lion
179,15,rose,0.35029369389,right,1,correct,arm2,2,arm22,lion
180,15,lion,0.166965557566,left,1,correct,arm2,3,arm23,lion
181,16,lion,1.96690536684,space,1,correct,target,NaN,targetNaN,lion
182,16,coffeepot,0.216749079254,left,1,correct,path,1,path1,lion
183,16,mosquito,0.150282404356,left,1,correct,path,2,path2,lion
184,16,canoe,0.233584973209,right,1,correct,path,3,path3,lion
185,16,goose,0.43429355745,left,1,correct,decision,1,decision1,lion
186,16,sailor,0.466972530513,left,1,correct,arm1,1,arm11,lion
187,16,cooker,0.0169104531719,left,1,correct,arm1,2,arm12,lion
188,16,tooth,0.0836020131592,left,1,correct,arm1,3,arm13,lion
189,16,crutches,0.467405396578,right,1,correct,decision,2,decision2,lion
190,16,stapler,0.450270360175,right,1,correct,arm2,1,arm21,lion
191,16,rose,0.266953996359,right,1,correct,arm2,2,arm22,lion
192,16,lion,0.0335854561831,left,1,correct,arm2,3,arm23,lion
193,17,bolt,0.467084822128,space,1,correct,target,NaN,targetNaN,bolt
194,17,coffeepot,0.133585667485,left,1,correct,path,1,path1,bolt
195,17,mosquito,0.0835691105085,left,1,correct,path,2,path2,bolt
196,17,canoe,0.217226318619,right,1,correct,path,3,path3,bolt
197,17,domino,0.784298372103,left,1,correct,decision,1,decision1,bolt
198,17,ambulance,0.783710652279,left,1,correct,arm1,1,arm11,bolt
199,17,trunk,0.0336576005275,left,1,correct,arm1,2,arm12,bolt
200,17,peach,0.0669556867701,left,1,correct,arm1,3,arm13,bolt
201,17,garlic,0.650291007343,right,1,correct,decision,2,decision2,bolt
202,17,mug,0.833396975311,right,1,correct,arm2,1,arm21,bolt
203,17,branch,0.450267945302,left,1,correct,arm2,2,arm22,bolt
204,17,bolt,0.000238468752741,right,1,correct,arm2,3,arm23,bolt
205,18,bolt,0.400293950471,space,1,correct,target,NaN,targetNaN,bolt
206,18,coffeepot,0.16691212849,left,1,correct,path,1,path1,bolt
207,18,mosquito,0.216903329295,left,1,correct,path,2,path2,bolt
208,18,canoe,0.183674066946,right,1,correct,path,3,path3,bolt
209,18,domino,0.900313722247,left,1,correct,decision,1,decision1,bolt
210,18,ambulance,0.583598843637,left,1,correct,arm1,1,arm11,bolt
211,18,trunk,0.450597877386,left,1,correct,arm1,2,arm12,bolt
212,18,peach,1.45028515128,left,1,correct,arm1,3,arm13,bolt
213,18,garlic,2.78359443649,left,1,correct,decision,2,decision2,bolt
214,18,mug,1.80026370418,right,1,correct,arm2,1,arm21,bolt
215,18,branch,0.433581169782,left,1,correct,arm2,2,arm22,bolt
216,18,bolt,0.0669119171889,right,1,correct,arm2,3,arm23,bolt
217,19,lion,0.633606042979,space,1,correct,target,NaN,targetNaN,lion
218,19,coffeepot,0.166904582011,left,1,correct,path,1,path1,lion
219,19,mosquito,0.233578936025,left,1,correct,path,2,path2,lion
220,19,canoe,0.166965255707,right,1,correct,path,3,path3,lion
221,19,goose,0.566985721759,left,1,correct,decision,1,decision1,lion
222,19,sailor,0.433634900717,left,1,correct,arm1,1,arm11,lion
223,19,cooker,0.0336633358515,left,1,correct,arm1,2,arm12,lion
224,19,tooth,0.100254074873,left,1,correct,arm1,3,arm13,lion
225,19,crutches,0.766943884077,left,1,correct,decision,2,decision2,lion
226,19,stapler,0.617063254289,right,1,correct,arm2,1,arm21,lion
227,19,rose,0.0503661099078,right,1,correct,arm2,2,arm22,lion
228,19,lion,0.08356126217,left,1,correct,arm2,3,arm23,lion
229,20,bolt,0.25033725217,space,1,correct,target,NaN,targetNaN,bolt
230,20,coffeepot,0.166936277225,left,1,correct,path,1,path1,bolt
231,20,mosquito,0.116949906167,left,1,correct,path,2,path2,bolt
232,20,canoe,0.216902121859,right,1,correct,path,3,path3,bolt
233,20,domino,1.48359259515,right,1,correct,decision,1,decision1,bolt
234,20,ambulance,0.400240823255,left,1,correct,arm1,1,arm11,bolt
235,20,trunk,0.0503214347486,left,1,correct,arm1,2,arm12,bolt
236,20,peach,0.150228371564,left,1,correct,arm1,3,arm13,bolt
237,20,garlic,0.500284804137,left,1,correct,decision,2,decision2,bolt
238,20,mug,0.866885836556,right,1,correct,arm2,1,arm21,bolt
239,20,branch,0.383606873092,left,1,correct,arm2,2,arm22,bolt
240,20,bolt,0.0334312061418,right,1,correct,arm2,3,arm23,bolt
