pic_index,trial_num,pic_name,rt,resp,feedback_code,feedback,segment,segment_index,pic_type,trial_target
1,1,beaver,2.5337727598,space,1,correct,target,NaN,targetNaN,beaver
2,1,trophy,3.30021344463,left,1,correct,path,1,path1,beaver
3,1,astronaut,0.950235797299,right,1,correct,path,2,path2,beaver
4,1,robot,0.333599673751,right,1,correct,path,3,path3,beaver
5,1,pigeon,3.06688716474,right,1,correct,decision,1,decision1,beaver
6,1,bus,1.16691031734,left,1,correct,arm1,1,arm11,beaver
7,1,deer,0.0502233305151,left,1,correct,arm1,2,arm12,beaver
8,1,fist,0.183575358993,left,1,correct,arm1,3,arm13,beaver
9,1,stepladder,1.2669256216,right,1,correct,decision,2,decision2,beaver
10,1,calc,1.71689351887,right,1,correct,arm2,1,arm21,beaver
11,1,tongue,0.833620351105,right,1,correct,arm2,2,arm22,beaver
12,1,beaver,0.90025335041,left,1,correct,arm2,3,arm23,beaver
13,2,beaver,1.68363014644,space,-1,miss,target,NaN,targetNaN,beaver
14,2,trophy,2.30027743877,left,-1,miss,path,1,path1,beaver
15,2,astronaut,0.600286222875,right,-1,miss,path,2,path2,beaver
16,2,robot,0.0835694123678,right,-1,miss,path,3,path3,beaver
17,2,pigeon,3.01688449328,right,-1,miss,decision,1,decision1,beaver
18,2,bus,2.58355658335,left,-1,miss,arm1,1,arm11,beaver
19,2,deer,0.0668929000606,left,-1,miss,arm1,2,arm12,beaver
20,2,fist,0.166896129954,left,-1,miss,arm1,3,arm13,beaver
21,2,holly,3.33354081121,right,-1,miss,decision,2,decision2,beaver
22,2,match,1.93357407609,right,-1,miss,arm2,1,arm21,beaver
23,2,baby,13.6167281906,right,-1,miss,arm2,2,arm22,beaver
24,2,arc,2.60021860642,left,-1,miss,arm2,3,arm23,beaver
25,3,beaver,0.950428383456,space,0,wrong,target,NaN,targetNaN,beaver
26,3,trophy,1.30024755471,left,0,wrong,path,1,path1,beaver
27,3,astronaut,0.450263719273,right,0,wrong,path,2,path2,beaver
28,3,robot,0.050204917105,right,0,wrong,path,3,path3,beaver
29,3,watch,2.3171667618,left,0,wrong,decision,1,decision1,beaver
30,3,clover,3.58353213276,left,0,wrong,arm1,1,arm11,beaver
31,3,radio,0.0502541201515,left,0,wrong,arm1,2,arm12,beaver
32,3,wing,0.267013462618,left,0,wrong,arm1,3,arm13,beaver
33,3,stepladder,1.05027947632,left,0,wrong,decision,2,decision2,beaver
34,3,calc,4.01686185384,right,0,wrong,arm2,1,arm21,beaver
35,3,tongue,0.633569819878,right,0,wrong,arm2,2,arm22,beaver
36,3,beaver,0.716913139719,left,0,wrong,arm2,3,arm23,beaver
37,4,arc,5.48362972383,space,-1,miss,target,NaN,targetNaN,arc
38,4,trophy,1.46693087395,left,-1,miss,path,1,path1,arc
39,4,astronaut,0.183612487673,right,-1,miss,path,2,path2,arc
40,4,robot,0.0338453569379,right,-1,miss,path,3,path3,arc
41,4,pigeon,2.5002096412,left,-1,miss,decision,1,decision1,arc
42,4,bus,3.31688784392,left,-1,miss,arm1,1,arm11,arc
43,4,deer,0.0336129253687,left,-1,miss,arm1,2,arm12,arc
44,4,fist,0.083570016086,left,-1,miss,arm1,3,arm13,arc
45,4,stepladder,0.883709354284,left,-1,miss,decision,2,decision2,arc
46,4,calc,4.76685393004,right,-1,miss,arm2,1,arm21,arc
47,4,tongue,0.566930783388,right,-1,miss,arm2,2,arm22,arc
48,4,beaver,0.400253803199,left,-1,miss,arm2,3,arm23,arc
49,5,arc,0.750331365916,space,1,correct,target,NaN,targetNaN,arc
50,5,trophy,3.71686695526,left,1,correct,path,1,path1,arc
51,5,astronaut,0.183717232808,right,1,correct,path,2,path2,arc
52,5,robot,0.0502124635846,right,1,correct,path,3,path3,arc
53,5,watch,0.766968636529,left,1,correct,decision,1,decision1,arc
54,5,clover,2.71688536867,left,1,correct,arm1,1,arm11,arc
55,5,radio,0.0502266509659,left,1,correct,arm1,2,arm12,arc
56,5,wing,0.316915011246,left,1,correct,arm1,3,arm13,arc
57,5,holly,0.517021386421,right,1,correct,decision,2,decision2,arc
58,5,match,2.0169161885,right,1,correct,arm2,1,arm21,arc
59,5,baby,1.1669223917,right,1,correct,arm2,2,arm22,arc
60,5,arc,0.516905170637,left,1,correct,arm2,3,arm23,arc
61,6,beaver,1.65029825196,space,-1,miss,target,NaN,targetNaN,beaver
62,6,trophy,2.6001884205,left,-1,miss,path,1,path1,beaver
63,6,astronaut,0.0835612621697,right,-1,miss,path,2,path2,beaver
64,6,robot,0.0502387253332,right,-1,miss,path,3,path3,beaver
65,6,watch,7.36687813915,left,-1,miss,decision,1,decision1,beaver
66,6,clover,6.4168282871,left,-1,miss,arm1,1,arm11,beaver
67,6,radio,0.0502438569392,left,-1,miss,arm1,2,arm12,beaver
68,6,wing,0.233576823011,left,-1,miss,arm1,3,arm13,beaver
69,6,holly,2.48355727763,right,-1,miss,decision,2,decision2,beaver
70,6,match,0.783580852831,right,-1,miss,arm2,1,arm21,beaver
71,6,baby,0.733571540475,right,-1,miss,arm2,2,arm22,beaver
72,6,arc,0.400279763089,left,-1,miss,arm2,3,arm23,beaver
73,7,beaver,3.16693899396,space,1,correct,target,NaN,targetNaN,beaver
74,7,trophy,5.1001792138,left,1,correct,path,1,path1,beaver
75,7,astronaut,0.150263387228,right,1,correct,path,2,path2,beaver
76,7,robot,0.0502438569395,right,1,correct,path,3,path3,beaver
77,7,pigeon,0.833595900511,left,1,correct,decision,1,decision1,beaver
78,7,bus,3.59998889158,left,1,correct,arm1,1,arm11,beaver
79,7,deer,0.0170677218052,left,1,correct,arm1,2,arm12,beaver
80,7,fist,0.0668886740323,left,1,correct,arm1,3,arm13,beaver
81,7,stepladder,0.933664030128,left,1,correct,decision,2,decision2,beaver
82,7,calc,6.50016074001,right,1,correct,arm2,1,arm21,beaver
83,7,tongue,0.500336422057,right,1,correct,arm2,2,arm22,beaver
84,7,beaver,0.283558364322,left,1,correct,arm2,3,arm23,beaver
85,8,arc,1.51700961391,space,1,correct,target,NaN,targetNaN,arc
86,8,trophy,2.13355276483,left,1,correct,path,1,path1,arc
87,8,astronaut,0.250194774636,right,1,correct,path,2,path2,arc
88,8,robot,0.0502284621211,right,1,correct,path,3,path3,arc
89,8,watch,1.88360491101,left,1,correct,decision,1,decision1,arc
90,8,clover,2.31669163545,left,1,correct,arm1,1,arm11,arc
91,8,radio,0.0839243987643,left,1,correct,arm1,2,arm12,arc
92,8,wing,0.150264896524,left,1,correct,arm1,3,arm13,arc
93,8,holly,0.683708931681,left,1,correct,decision,2,decision2,arc
94,8,match,0.750596096417,right,1,correct,arm2,1,arm21,arc
95,8,baby,0.633594572331,right,1,correct,arm2,2,arm22,arc
96,8,arc,0.200285679529,left,1,correct,arm2,3,arm23,arc
97,9,arc,1.01696991943,space,-1,miss,target,NaN,targetNaN,arc
98,9,trophy,3.81686082752,left,-1,miss,path,1,path1,arc
99,9,astronaut,0.166911524772,right,-1,miss,path,2,path2,arc
100,9,robot,0.0836237470203,right,-1,miss,path,3,path3,arc
101,9,pigeon,2.76701904701,right,-1,miss,decision,1,decision1,arc
102,9,bus,1.36691134366,left,-1,miss,arm1,1,arm11,arc
103,9,deer,0.0668935037791,left,-1,miss,arm1,2,arm12,arc
104,9,fist,0.216899706985,left,-1,miss,arm1,3,arm13,arc
105,9,stepladder,1.53357896621,left,-1,miss,decision,2,decision2,arc
106,9,calc,0.783605605284,right,-1,miss,arm2,1,arm21,arc
107,9,tongue,0.40034949256,right,-1,miss,arm2,2,arm22,arc
108,9,beaver,0.666916505449,left,-1,miss,arm2,3,arm23,arc
109,10,arc,0.867076309699,space,1,correct,target,NaN,targetNaN,arc
110,10,trophy,1.25021620664,left,1,correct,path,1,path1,arc
111,10,astronaut,0.100242906083,right,1,correct,path,2,path2,arc
112,10,robot,0.0669538756154,right,1,correct,path,3,path3,arc
113,10,watch,0.766916113032,right,1,correct,decision,1,decision1,arc
114,10,clover,1.13369826096,left,1,correct,arm1,1,arm11,arc
115,10,radio,0.0503338109752,left,1,correct,arm1,2,arm12,arc
116,10,wing,0.233591312251,left,1,correct,arm1,3,arm13,arc
117,10,holly,2.06693938637,right,1,correct,decision,2,decision2,arc
118,10,match,0.650260217707,right,1,correct,arm2,1,arm21,arc
119,10,baby,1.2169099702,right,1,correct,arm2,2,arm22,arc
120,10,arc,0.133558198299,left,1,correct,arm2,3,arm23,arc
121,11,arc,0.883826173787,space,1,correct,target,NaN,targetNaN,arc
122,11,trophy,0.766992483404,left,1,correct,path,1,path1,arc
123,11,astronaut,0.133583252611,right,1,correct,path,2,path2,arc
124,11,robot,0.0502230286559,right,1,correct,path,3,path3,arc
125,11,watch,2.23360459406,left,1,correct,decision,1,decision1,arc
126,11,clover,2.00095568617,left,1,correct,arm1,1,arm11,arc
127,11,radio,0.0335824375913,left,1,correct,arm1,2,arm12,arc
128,11,wing,0.116978884648,left,1,correct,arm1,3,arm13,arc
129,11,holly,0.950102073682,right,1,correct,decision,2,decision2,arc
130,11,match,1.08359386296,right,1,correct,arm2,1,arm21,arc
131,11,baby,0.516946827204,right,1,correct,arm2,2,arm22,arc
132,11,arc,0.283933575284,left,1,correct,arm2,3,arm23,arc
133,12,beaver,0.800299021705,space,1,correct,target,NaN,targetNaN,beaver
134,12,trophy,1.45026673787,left,1,correct,path,1,path1,beaver
135,12,astronaut,1.1335449165,right,1,correct,path,2,path2,beaver
136,12,robot,0.183380659822,right,1,correct,path,3,path3,beaver
137,12,pigeon,0.883591327344,left,1,correct,decision,1,decision1,beaver
138,12,bus,0.666905336659,left,1,correct,arm1,1,arm11,beaver
139,12,deer,0.0338927488292,left,1,correct,arm1,2,arm12,beaver
140,12,fist,0.200352692267,left,1,correct,arm1,3,arm13,beaver
141,12,stepladder,0.516957995993,right,1,correct,decision,2,decision2,beaver
142,12,calc,2.90021682545,right,1,correct,arm2,1,arm21,beaver
143,12,tongue,0.450232325918,right,1,correct,arm2,2,arm22,beaver
144,12,beaver,0.283608171086,left,1,correct,arm2,3,arm23,beaver
145,13,beaver,0.800434556477,space,1,correct,target,NaN,targetNaN,beaver
146,13,trophy,0.650234861536,left,1,correct,path,1,path1,beaver
147,13,astronaut,0.216907857183,right,1,correct,path,2,path2,beaver
148,13,robot,0.0669010502586,right,1,correct,path,3,path3,beaver
149,13,pigeon,0.633644077236,left,1,correct,decision,1,decision1,beaver
150,13,bus,0.566923840627,left,1,correct,arm1,1,arm11,beaver
151,13,deer,0.0335486293629,left,1,correct,arm1,2,arm12,beaver
152,13,fist,0.0836364251059,left,1,correct,arm1,3,arm13,beaver
153,13,stepladder,1.10024290608,right,1,correct,decision,2,decision2,beaver
154,13,calc,0.650245124748,right,1,correct,arm2,1,arm21,beaver
155,13,tongue,0.283581305619,right,1,correct,arm2,2,arm22,beaver
156,13,beaver,0.266914150947,left,1,correct,arm2,3,arm23,beaver
157,14,beaver,0.833617332513,space,1,correct,target,NaN,targetNaN,beaver
158,14,trophy,0.750258919712,left,1,correct,path,1,path1,beaver
159,14,astronaut,1.00022579067,right,1,correct,path,2,path2,beaver
160,14,robot,0.0669007483993,right,1,correct,path,3,path3,beaver
161,14,pigeon,0.466965587751,left,1,correct,decision,1,decision1,beaver
162,14,bus,0.483585048673,left,1,correct,arm1,1,arm11,beaver
163,14,deer,0.0668820331302,left,1,correct,arm1,2,arm12,beaver
164,14,fist,0.10024411352,left,1,correct,arm1,3,arm13,beaver
165,14,stepladder,0.283638357005,right,1,correct,decision,2,decision2,beaver
166,14,calc,0.733618328648,right,1,correct,arm2,1,arm21,beaver
167,14,tongue,0.18362456204,right,1,correct,arm2,2,arm22,beaver
168,14,beaver,0.250231903316,left,1,correct,arm2,3,arm23,beaver
169,15,beaver,0.483649948397,space,1,correct,target,NaN,targetNaN,beaver
170,15,trophy,0.333562846931,left,1,correct,path,1,path1,beaver
171,15,astronaut,0.533581984803,right,1,correct,path,2,path2,beaver
172,15,robot,0.0502456680942,right,1,correct,path,3,path3,beaver
173,15,pigeon,0.400258331087,right,1,correct,decision,1,decision1,beaver
174,15,bus,0.566959158151,left,1,correct,arm1,1,arm11,beaver
175,15,deer,0.300264760687,left,1,correct,arm1,2,arm12,beaver
176,15,fist,0.0669197655279,left,1,correct,arm1,3,arm13,beaver
177,15,stepladder,1.73369711389,left,1,correct,decision,2,decision2,beaver
178,15,calc,1.90023705001,right,1,correct,arm2,1,arm21,beaver
179,15,tongue,0.250272352446,right,1,correct,arm2,2,arm22,beaver
180,15,beaver,0.266909623059,left,1,correct,arm2,3,arm23,beaver
181,16,arc,0.916950389142,space,1,correct,target,NaN,targetNaN,arc
182,16,trophy,1.7333569186,left,1,correct,path,1,path1,arc
183,16,astronaut,0.0836080503429,right,1,correct,path,2,path2,arc
184,16,robot,0.0835528101127,right,1,correct,path,3,path3,arc
185,16,watch,0.350328709555,right,1,correct,decision,1,decision1,arc
186,16,clover,0.500274239066,left,1,correct,arm1,1,arm11,arc
187,16,radio,0.0502755521532,left,1,correct,arm1,2,arm12,arc
188,16,wing,0.25029680304,left,1,correct,arm1,3,arm13,arc
189,16,holly,0.316954252939,left,1,correct,decision,2,decision2,arc
190,16,match,0.550233442798,right,1,correct,arm2,1,arm21,arc
191,16,baby,0.666920127759,right,1,correct,arm2,2,arm22,arc
192,16,arc,0.167043739094,left,1,correct,arm2,3,arm23,arc
193,17,beaver,0.767020556308,space,1,correct,target,NaN,targetNaN,beaver
194,17,trophy,0.433653917846,left,1,correct,path,1,path1,beaver
195,17,astronaut,0.633941408529,right,1,correct,path,2,path2,beaver
196,17,robot,0.0502456680945,right,1,correct,path,3,path3,beaver
197,17,pigeon,0.450311714883,left,1,correct,decision,1,decision1,beaver
198,17,bus,0.483617045747,left,1,correct,arm1,1,arm11,beaver
199,17,deer,1.11696530099,left,1,correct,arm1,2,arm12,beaver
200,17,fist,0.116905834727,left,1,correct,arm1,3,arm13,beaver
201,17,stepladder,1.28360696365,right,1,correct,decision,2,decision2,beaver
202,17,calc,1.13405324736,right,1,correct,arm2,1,arm21,beaver
203,17,tongue,1.35072505066,right,1,correct,arm2,2,arm22,beaver
204,17,beaver,1.11695383034,left,1,correct,arm2,3,arm23,beaver
205,18,arc,4.63356348083,space,1,correct,target,NaN,targetNaN,arc
206,18,trophy,1.9502653795,left,1,correct,path,1,path1,arc
207,18,astronaut,0.150289950836,right,1,correct,path,2,path2,arc
208,18,robot,0.133598647429,right,1,correct,path,3,path3,arc
209,18,watch,1.03392263289,right,1,correct,decision,1,decision1,arc
210,18,clover,0.633702034199,left,1,correct,arm1,1,arm11,arc
211,18,radio,0.0669535737561,left,1,correct,arm1,2,arm12,arc
212,18,wing,0.200275114458,left,1,correct,arm1,3,arm13,arc
213,18,holly,0.550893005108,left,1,correct,decision,2,decision2,arc
214,18,match,0.566942254037,right,1,correct,arm2,1,arm21,arc
215,18,baby,0.350406287365,right,1,correct,arm2,2,arm22,arc
216,18,arc,0.150348209658,left,1,correct,arm2,3,arm23,arc
217,19,beaver,4.46690280104,space,1,correct,target,NaN,targetNaN,beaver
218,19,trophy,0.383758104542,left,1,correct,path,1,path1,beaver
219,19,astronaut,0.183605544912,right,1,correct,path,2,path2,beaver
220,19,robot,0.066923387838,right,1,correct,path,3,path3,beaver
221,19,pigeon,0.517049157466,left,1,correct,decision,1,decision1,beaver
222,19,bus,0.883583479006,left,1,correct,arm1,1,arm11,beaver
223,19,deer,0.0502323862904,left,1,correct,arm1,2,arm12,beaver
224,19,fist,0.116928474165,left,1,correct,arm1,3,arm13,beaver
225,19,stepladder,0.533665599796,left,1,correct,decision,2,decision2,beaver
226,19,calc,0.933593395079,right,1,correct,arm2,1,arm21,beaver
227,19,tongue,0.533578664352,right,1,correct,arm2,2,arm22,beaver
228,19,beaver,0.317400098949,left,1,correct,arm2,3,arm23,beaver
229,20,beaver,1.48393792206,space,1,correct,target,NaN,targetNaN,beaver
230,20,trophy,0.266922904863,left,1,correct,path,1,path1,beaver
231,20,astronaut,0.116897684529,right,1,correct,path,2,path2,beaver
232,20,robot,0.0835434524781,right,1,correct,path,3,path3,beaver
233,20,pigeon,0.433570604711,left,1,correct,decision,1,decision1,beaver
234,20,bus,0.466938118566,left,1,correct,arm1,1,arm11,beaver
235,20,deer,0.0335579869977,left,1,correct,arm1,2,arm12,beaver
236,20,fist,0.0835534138312,left,1,correct,arm1,3,arm13,beaver
237,20,stepladder,0.516952562528,left,1,correct,decision,2,decision2,beaver
238,20,calc,0.533585607113,right,1,correct,arm2,1,arm21,beaver
239,20,tongue,0.416918241139,right,1,correct,arm2,2,arm22,beaver
240,20,beaver,0.333568884114,left,1,correct,arm2,3,arm23,beaver
241,21,arc,1.11695201918,space,1,correct,target,NaN,targetNaN,arc
242,21,trophy,0.216903631155,left,1,correct,path,1,path1,arc
243,21,astronaut,0.133567555934,right,1,correct,path,2,path2,arc
244,21,robot,0.0502909469715,right,1,correct,path,3,path3,arc
245,21,watch,0.366975035944,left,1,correct,decision,1,decision1,arc
246,21,clover,0.450254361639,left,1,correct,arm1,1,arm11,arc
247,21,radio,0.350254150337,left,1,correct,arm1,2,arm12,arc
248,21,wing,0.13358355447,left,1,correct,arm1,3,arm13,arc
249,21,holly,0.767057684988,right,1,correct,decision,2,decision2,arc
250,21,match,0.500263673994,right,1,correct,arm2,1,arm21,arc
251,21,baby,0.250299217913,right,1,correct,arm2,2,arm22,arc
252,21,arc,0.267030668591,left,1,correct,arm2,3,arm23,arc
253,22,arc,0.166961633396,space,1,correct,target,NaN,targetNaN,arc
254,22,trophy,0.233526110668,left,1,correct,path,1,path1,arc
255,22,astronaut,0.133687092169,right,1,correct,path,2,path2,arc
256,22,robot,0.166937786521,right,1,correct,path,3,path3,arc
257,22,watch,1.28358583351,right,1,correct,decision,1,decision1,arc
258,22,clover,0.95028349105,left,1,correct,arm1,1,arm11,arc
259,22,radio,0.0502613647716,left,1,correct,arm1,2,arm12,arc
260,22,wing,0.183639051281,left,1,correct,arm1,3,arm13,arc
261,22,holly,0.550414860165,right,1,correct,decision,2,decision2,arc
262,22,match,0.500328875578,right,1,correct,arm2,1,arm21,arc
263,22,baby,0.216949815609,right,1,correct,arm2,2,arm22,arc
264,22,arc,0.183590753812,left,1,correct,arm2,3,arm23,arc
265,23,beaver,0.866971866423,space,1,correct,target,NaN,targetNaN,beaver
266,23,trophy,0.766716885972,left,1,correct,path,1,path1,beaver
267,23,astronaut,0.483641798199,right,1,correct,path,2,path2,beaver
268,23,robot,0.100253471154,right,1,correct,path,3,path3,beaver
269,23,pigeon,0.416948125198,left,1,correct,decision,1,decision1,beaver
270,23,bus,0.450292697755,left,1,correct,arm1,1,arm11,beaver
271,23,deer,0.0670441315103,left,1,correct,arm1,2,arm12,beaver
272,23,fist,0.250287143546,left,1,correct,arm1,3,arm13,beaver
273,23,stepladder,0.633773272966,left,1,correct,decision,2,decision2,beaver
274,23,calc,0.583636877895,right,1,correct,arm2,1,arm21,beaver
275,23,tongue,0.366917078981,right,1,correct,arm2,2,arm22,beaver
276,23,beaver,0.150323155346,left,1,correct,arm2,3,arm23,beaver
277,24,arc,1.21694860817,space,1,correct,target,NaN,targetNaN,arc
278,24,trophy,0.400331984727,left,1,correct,path,1,path1,arc
279,24,astronaut,0.116902514276,right,1,correct,path,2,path2,arc
280,24,robot,0.117547285486,right,1,correct,path,3,path3,arc
281,24,watch,0.533695181995,right,1,correct,decision,1,decision1,arc
282,24,clover,0.450284547557,left,1,correct,arm1,1,arm11,arc
283,24,radio,0.0667298961032,left,1,correct,arm1,2,arm12,arc
284,24,wing,0.217058484915,left,1,correct,arm1,3,arm13,arc
285,24,holly,0.88352672948,left,1,correct,decision,2,decision2,arc
286,24,match,0.500283294841,right,1,correct,arm2,1,arm21,arc
287,24,baby,0.283591870691,right,1,correct,arm2,2,arm22,arc
288,24,arc,0.383577290892,left,1,correct,arm2,3,arm23,arc
289,25,beaver,3.13358053588,space,1,correct,target,NaN,targetNaN,beaver
290,25,trophy,0.183562680908,left,1,correct,path,1,path1,beaver
291,25,astronaut,0.083618011696,right,1,correct,path,2,path2,beaver
292,25,robot,0.116895873374,right,1,correct,path,3,path3,beaver
293,25,pigeon,0.450377822044,left,1,correct,decision,1,decision1,beaver
294,25,bus,0.333616276006,left,1,correct,arm1,1,arm11,beaver
295,25,deer,0.066941801248,left,1,correct,arm1,2,arm12,beaver
296,25,fist,0.233571087686,left,1,correct,arm1,3,arm13,beaver
297,25,stepladder,1.16695831295,right,1,correct,decision,2,decision2,beaver
298,25,calc,0.616932247405,right,1,correct,arm2,1,arm21,beaver
299,25,tongue,0.500238015964,right,1,correct,arm2,2,arm22,beaver
300,25,beaver,0.266927130892,left,1,correct,arm2,3,arm23,beaver
301,26,arc,0.900299534865,space,1,correct,target,NaN,targetNaN,arc
302,26,trophy,0.183549097245,left,1,correct,path,1,path1,arc
303,26,astronaut,0.0668871647363,right,1,correct,path,2,path2,arc
304,26,robot,0.0835736383963,right,1,correct,path,3,path3,arc
305,26,watch,0.950360767,left,1,correct,decision,1,decision1,arc
306,26,clover,0.400242936269,left,1,correct,arm1,1,arm11,arc
307,26,radio,0.0668935037791,left,1,correct,arm1,2,arm12,arc
308,26,wing,0.10022932242,left,1,correct,arm1,3,arm13,arc
309,26,holly,0.83360737116,right,1,correct,decision,2,decision2,arc
310,26,match,0.550431764279,right,1,correct,arm2,1,arm21,arc
311,26,baby,0.366994354931,right,1,correct,arm2,2,arm22,arc
312,26,arc,0.267166807081,left,1,correct,arm2,3,arm23,arc
313,27,beaver,0.733570333038,space,1,correct,target,NaN,targetNaN,beaver
314,27,trophy,0.233629346508,left,1,correct,path,1,path1,beaver
315,27,astronaut,0.217301783414,right,1,correct,path,2,path2,beaver
316,27,robot,0.116912173769,right,1,correct,path,3,path3,beaver
317,27,pigeon,0.316979307251,right,1,correct,decision,1,decision1,beaver
318,27,bus,0.366953000224,left,1,correct,arm1,1,arm11,beaver
319,27,deer,0.0670667709489,left,1,correct,arm1,2,arm12,beaver
320,27,fist,0.116907645882,left,1,correct,arm1,3,arm13,beaver
321,27,stepladder,1.30025932722,left,1,correct,decision,2,decision2,beaver
322,27,calc,0.583409879791,right,1,correct,arm2,1,arm21,beaver
323,27,tongue,0.300263251392,right,1,correct,arm2,2,arm22,beaver
324,27,beaver,0.250245486979,left,1,correct,arm2,3,arm23,beaver
325,28,arc,1.5169646369,space,1,correct,target,NaN,targetNaN,arc
326,28,trophy,0.966922572818,left,1,correct,path,1,path1,arc
327,28,astronaut,0.466927553495,right,1,correct,path,2,path2,arc
328,28,robot,0.133586573062,right,1,correct,path,3,path3,arc
329,28,watch,1.13361253295,right,1,correct,decision,1,decision1,arc
330,28,clover,0.333618992738,left,1,correct,arm1,1,arm11,arc
331,28,radio,0.0502320844312,left,1,correct,arm1,2,arm12,arc
332,28,wing,0.233608820084,left,1,correct,arm1,3,arm13,arc
333,28,holly,1.40032141966,left,1,correct,decision,2,decision2,arc
334,28,match,0.550297738803,right,1,correct,arm2,1,arm21,arc
335,28,baby,0.30025993094,right,1,correct,arm2,2,arm22,arc
336,28,arc,0.666915599871,left,1,correct,arm2,3,arm23,arc
337,29,beaver,0.600700071812,space,1,correct,target,NaN,targetNaN,beaver
338,29,trophy,0.216713459871,left,1,correct,path,1,path1,beaver
339,29,astronaut,0.233653495243,right,1,correct,path,2,path2,beaver
340,29,robot,0.0835669974942,right,1,correct,path,3,path3,beaver
341,29,pigeon,0.417081245097,right,1,correct,decision,1,decision1,beaver
342,29,bus,0.366979261973,left,1,correct,arm1,1,arm11,beaver
343,29,deer,0.0669188599504,left,1,correct,arm1,2,arm12,beaver
344,29,fist,0.166945333001,left,1,correct,arm1,3,arm13,beaver
345,29,stepladder,0.400311156444,left,1,correct,decision,2,decision2,beaver
346,29,calc,0.616949151519,right,1,correct,arm2,1,arm21,beaver
347,29,tongue,0.25024518512,right,1,correct,arm2,2,arm22,beaver
348,29,beaver,0.283663109457,left,1,correct,arm2,3,arm23,beaver
349,30,arc,0.750267673629,space,1,correct,target,NaN,targetNaN,arc
350,30,trophy,0.233604594055,left,1,correct,path,1,path1,arc
351,30,astronaut,0.100379648292,right,1,correct,path,2,path2,arc
352,30,robot,0.116909155178,right,1,correct,path,3,path3,arc
353,30,watch,0.634124637052,right,1,correct,decision,1,decision1,arc
354,30,clover,0.333598466314,left,1,correct,arm1,1,arm11,arc
355,30,radio,0.066921878542,left,1,correct,arm1,2,arm12,arc
356,30,wing,0.100252565577,left,1,correct,arm1,3,arm13,arc
357,30,holly,0.45039050013,left,1,correct,decision,2,decision2,arc
358,30,match,0.433634296999,right,1,correct,arm2,1,arm21,arc
359,30,baby,0.317076807767,right,1,correct,arm2,2,arm22,arc
360,30,arc,0.11694145411,left,1,correct,arm2,3,arm23,arc
361,31,arc,1.11696288611,space,1,correct,target,NaN,targetNaN,arc
362,31,trophy,0.183581094318,left,1,correct,path,1,path1,arc
363,31,astronaut,0.683404959486,right,1,correct,path,2,path2,arc
364,31,robot,0.683569472739,right,1,correct,path,3,path3,arc
365,31,watch,1.06695447933,left,1,correct,decision,1,decision1,arc
366,31,clover,3.41687477342,left,1,correct,arm1,1,arm11,arc
367,31,radio,0.0335495349407,left,1,correct,arm1,2,arm12,arc
368,31,wing,0.166929636323,left,1,correct,arm1,3,arm13,arc
369,31,holly,0.683590602882,left,1,correct,decision,2,decision2,arc
370,31,match,0.51705881696,right,1,correct,arm2,1,arm21,arc
371,31,baby,0.283945649651,right,1,correct,arm2,2,arm22,arc
372,31,arc,0.233653193383,left,1,correct,arm2,3,arm23,arc
373,32,arc,8.40017079192,space,1,correct,target,NaN,targetNaN,arc
374,32,trophy,0.167012647598,left,1,correct,path,1,path1,arc
375,32,astronaut,0.516919961736,right,1,correct,path,2,path2,arc
376,32,robot,0.066970176011,right,1,correct,path,3,path3,arc
377,32,watch,0.683558605809,right,1,correct,decision,1,decision1,arc
378,32,clover,0.400235691648,left,1,correct,arm1,1,arm11,arc
379,32,radio,0.0669342547685,left,1,correct,arm1,2,arm12,arc
380,32,wing,0.100246830252,left,1,correct,arm1,3,arm13,arc
381,32,holly,1.43361860032,right,1,correct,decision,2,decision2,arc
382,32,match,0.616936171574,right,1,correct,arm2,1,arm21,arc
383,32,baby,0.166900959701,right,1,correct,arm2,2,arm22,arc
384,32,arc,0.183566303218,left,1,correct,arm2,3,arm23,arc
385,33,arc,0.666959369452,space,1,correct,target,NaN,targetNaN,arc
386,33,trophy,0.183584414769,left,1,correct,path,1,path1,arc
387,33,astronaut,0.716889292843,right,1,correct,path,2,path2,arc
388,33,robot,0.0835790718615,right,1,correct,path,3,path3,arc
389,33,watch,0.65006008507,left,1,correct,decision,1,decision1,arc
390,33,clover,0.333647367501,left,1,correct,arm1,1,arm11,arc
391,33,radio,0.050248384827,left,1,correct,arm1,2,arm12,arc
392,33,wing,0.266895435678,left,1,correct,arm1,3,arm13,arc
393,33,holly,0.950283792909,left,1,correct,decision,2,decision2,arc
394,33,match,0.533581682944,right,1,correct,arm2,1,arm21,arc
395,33,baby,0.367031483611,right,1,correct,arm2,2,arm22,arc
396,33,arc,0.266902378439,left,1,correct,arm2,3,arm23,arc
397,34,beaver,0.666951822973,space,1,correct,target,NaN,targetNaN,beaver
398,34,trophy,0.366714229611,left,1,correct,path,1,path1,beaver
399,34,astronaut,0.750253184388,right,1,correct,path,2,path2,beaver
400,34,robot,0.0835875239186,right,1,correct,path,3,path3,beaver
401,34,pigeon,2.2336338744,left,1,correct,decision,1,decision1,beaver
402,34,bus,0.533587418268,left,1,correct,arm1,1,arm11,beaver
403,34,deer,0.0835588472964,left,1,correct,arm1,2,arm12,beaver
404,34,fist,0.200245834117,left,1,correct,arm1,3,arm13,beaver
405,34,stepladder,1.0836165024,right,1,correct,decision,2,decision2,beaver
406,34,calc,0.933674595199,right,1,correct,arm2,1,arm21,beaver
407,34,tongue,0.284077863972,right,1,correct,arm2,2,arm22,beaver
408,34,beaver,0.283606058072,left,1,correct,arm2,3,arm23,beaver
409,35,arc,2.08360744662,space,1,correct,target,NaN,targetNaN,arc
410,35,trophy,0.150247086832,left,1,correct,path,1,path1,arc
411,35,astronaut,0.683592112178,right,1,correct,path,2,path2,arc
412,35,robot,0.0835965796939,right,1,correct,path,3,path3,arc
413,35,watch,0.916995668019,right,1,correct,decision,1,decision1,arc
414,35,clover,0.416920052294,left,1,correct,arm1,1,arm11,arc
415,35,radio,0.0502824949144,left,1,correct,arm1,2,arm12,arc
416,35,wing,0.20031858218,left,1,correct,arm1,3,arm13,arc
417,35,holly,0.900387375887,left,1,correct,decision,2,decision2,arc
418,35,match,0.616958811013,right,1,correct,arm2,1,arm21,arc
419,35,baby,0.0836823077013,right,1,correct,arm2,2,arm22,arc
420,35,arc,0.118033882486,left,1,correct,arm2,3,arm23,arc
421,36,arc,1.73366028707,space,1,correct,target,NaN,targetNaN,arc
422,36,trophy,0.283560175477,left,1,correct,path,1,path1,arc
423,36,astronaut,0.300276533196,right,1,correct,path,2,path2,arc
424,36,robot,0.100215738757,right,1,correct,path,3,path3,arc
425,36,watch,0.550252158067,left,1,correct,decision,1,decision1,arc
426,36,clover,0.366957528111,left,1,correct,arm1,1,arm11,arc
427,36,radio,0.0337381969287,left,1,correct,arm1,2,arm12,arc
428,36,wing,0.0836445753039,left,1,correct,arm1,3,arm13,arc
429,36,holly,0.550324000552,left,1,correct,decision,2,decision2,arc
430,36,match,1.41697680182,right,1,correct,arm2,1,arm21,arc
431,36,baby,0.150069291775,right,1,correct,arm2,2,arm22,arc
432,36,arc,0.0335679483508,left,1,correct,arm2,3,arm23,arc
433,37,arc,0.61710370342,space,1,correct,target,NaN,targetNaN,arc
434,37,trophy,0.40024987903,left,1,correct,path,1,path1,arc
435,37,astronaut,0.383612306557,right,1,correct,path,2,path2,arc
436,37,robot,0.0502589498983,right,1,correct,path,3,path3,arc
437,37,watch,0.616964244478,right,1,correct,decision,1,decision1,arc
438,37,clover,0.317056885061,left,1,correct,arm1,1,arm11,arc
439,37,radio,0.0504068608968,left,1,correct,arm1,2,arm12,arc
440,37,wing,0.116996090622,left,1,correct,arm1,3,arm13,arc
441,37,holly,0.40035673718,left,1,correct,decision,2,decision2,arc
442,37,match,0.816955309446,right,1,correct,arm2,1,arm21,arc
443,37,baby,0.033560100012,right,1,correct,arm2,2,arm22,arc
444,37,arc,0.0838591971813,left,1,correct,arm2,3,arm23,arc
445,38,beaver,1.45028998102,space,1,correct,target,NaN,targetNaN,beaver
446,38,trophy,0.233605197774,left,1,correct,path,1,path1,beaver
447,38,astronaut,0.133532540269,right,1,correct,path,2,path2,beaver
448,38,robot,0.0668941074975,right,1,correct,path,3,path3,beaver
449,38,pigeon,0.333788637598,left,1,correct,decision,1,decision1,beaver
450,38,bus,0.300461271014,left,1,correct,arm1,1,arm11,beaver
451,38,deer,0.0503075492265,left,1,correct,arm1,2,arm12,beaver
452,38,fist,0.100226605687,left,1,correct,arm1,3,arm13,beaver
453,38,stepladder,0.584314551756,right,1,correct,decision,2,decision2,beaver
454,38,calc,0.500261259121,right,1,correct,arm2,1,arm21,beaver
455,38,tongue,0.10024018935,right,1,correct,arm2,2,arm22,beaver
456,38,beaver,0.0838326335734,left,1,correct,arm2,3,arm23,beaver
457,39,arc,1.38360506194,space,1,correct,target,NaN,targetNaN,arc
458,39,trophy,0.216896386534,left,1,correct,path,1,path1,arc
459,39,astronaut,0.250422678318,right,1,correct,path,2,path2,arc
460,39,robot,0.0669191618094,right,1,correct,path,3,path3,arc
461,39,watch,0.500316499351,left,1,correct,decision,1,decision1,arc
462,39,clover,1.83357537409,left,1,correct,arm1,1,arm11,arc
463,39,radio,0.0335981342689,left,1,correct,arm1,2,arm12,arc
464,39,wing,0.150254935171,left,1,correct,arm1,3,arm13,arc
465,39,holly,0.866950434421,left,1,correct,decision,2,decision2,arc
466,39,match,0.650422919805,right,1,correct,arm2,1,arm21,arc
467,39,baby,0.216900008845,right,1,correct,arm2,2,arm22,arc
468,39,arc,0.083573336537,left,1,correct,arm2,3,arm23,arc
469,40,arc,0.85027543141,space,1,correct,target,NaN,targetNaN,arc
470,40,trophy,0.133559707595,left,1,correct,path,1,path1,arc
471,40,astronaut,0.150230484578,right,1,correct,path,2,path2,arc
472,40,robot,0.10024381166,right,1,correct,path,3,path3,arc
473,40,watch,0.416993705934,right,1,correct,decision,1,decision1,arc
474,40,clover,0.416920354153,left,1,correct,arm1,1,arm11,arc
475,40,radio,0.100262828789,left,1,correct,arm1,2,arm12,arc
476,40,wing,0.0835639789025,left,1,correct,arm1,3,arm13,arc
477,40,holly,0.533647186386,right,1,correct,decision,2,decision2,arc
478,40,match,0.583590089722,right,1,correct,arm2,1,arm21,arc
479,40,baby,0.133553670411,right,1,correct,arm2,2,arm22,arc
480,40,arc,0.116908853318,left,1,correct,arm2,3,arm23,arc
481,41,beaver,2.51699753955,space,1,correct,target,NaN,targetNaN,beaver
482,41,trophy,0.166903978293,left,1,correct,path,1,path1,beaver
483,41,astronaut,0.116889232472,right,1,correct,path,2,path2,beaver
484,41,robot,0.100551406166,right,1,correct,path,3,path3,beaver
485,41,pigeon,0.483750467504,left,1,correct,decision,1,decision1,beaver
486,41,bus,0.316932519078,left,1,correct,arm1,1,arm11,beaver
487,41,deer,0.0669076911606,left,1,correct,arm1,2,arm12,beaver
488,41,fist,0.0669255008522,left,1,correct,arm1,3,arm13,beaver
489,41,stepladder,0.533669825824,right,1,correct,decision,2,decision2,beaver
490,41,calc,0.583604578962,right,1,correct,arm2,1,arm21,beaver
491,41,tongue,0.0836104652165,right,1,correct,arm2,2,arm22,beaver
492,41,beaver,0.083670233334,left,1,correct,arm2,3,arm23,beaver
493,42,beaver,0.200315261729,space,1,correct,target,NaN,targetNaN,beaver
494,42,trophy,0.183586225924,left,1,correct,path,1,path1,beaver
495,42,astronaut,0.0669372733603,right,1,correct,path,2,path2,beaver
496,42,robot,0.0669158413584,right,1,correct,path,3,path3,beaver
497,42,pigeon,0.550856782006,right,1,correct,decision,1,decision1,beaver
498,42,bus,0.250384342202,left,1,correct,arm1,1,arm11,beaver
499,42,deer,0.0335447051939,left,1,correct,arm1,2,arm12,beaver
500,42,fist,0.350269545155,left,1,correct,arm1,3,arm13,beaver
501,42,stepladder,1.16697431148,right,1,correct,decision,2,decision2,beaver
502,42,calc,0.550583901306,right,1,correct,arm2,1,arm21,beaver
503,42,tongue,0.0668910889058,right,1,correct,arm2,2,arm22,beaver
504,42,beaver,0.0167637496104,left,1,correct,arm2,3,arm23,beaver
505,43,beaver,0.46708421841,space,1,correct,target,NaN,targetNaN,beaver
506,43,trophy,0.133623098023,left,1,correct,path,1,path1,beaver
507,43,astronaut,0.0669493477276,right,1,correct,path,2,path2,beaver
508,43,robot,0.0669475365723,right,1,correct,path,3,path3,beaver
509,43,pigeon,0.267105529668,right,1,correct,decision,1,decision1,beaver
510,43,bus,0.267379617804,left,1,correct,arm1,1,arm11,beaver
511,43,deer,0.0169071327211,left,1,correct,arm1,2,arm12,beaver
512,43,fist,0.0836252563161,left,1,correct,arm1,3,arm13,beaver
513,43,stepladder,0.583629633274,right,1,correct,decision,2,decision2,beaver
514,43,calc,0.417005478442,right,1,correct,arm2,1,arm21,beaver
515,43,tongue,0.0336403945541,right,1,correct,arm2,2,arm22,beaver
516,43,beaver,0.0176080497392,left,1,correct,arm2,3,arm23,beaver
517,44,beaver,1.900256369,space,1,correct,target,NaN,targetNaN,beaver
518,44,trophy,0.134264548783,left,1,correct,path,1,path1,beaver
519,44,astronaut,0.0503881456277,right,1,correct,path,2,path2,beaver
520,44,robot,0.0836916653359,right,1,correct,path,3,path3,beaver
521,44,pigeon,0.516920867314,left,1,correct,decision,1,decision1,beaver
522,44,bus,0.383579102047,left,1,correct,arm1,1,arm11,beaver
523,44,deer,0.0169563357676,left,1,correct,arm1,2,arm12,beaver
524,44,fist,0.0671727235213,left,1,correct,arm1,3,arm13,beaver
525,44,stepladder,1.05048624986,right,1,correct,decision,2,decision2,beaver
526,44,calc,0.600255433239,right,1,correct,arm2,1,arm21,beaver
527,44,tongue,0.0503446779057,right,1,correct,arm2,2,arm22,beaver
528,44,beaver,0.000238468752968,left,1,correct,arm2,3,arm23,beaver
529,45,beaver,1.70030333829,space,1,correct,target,NaN,targetNaN,beaver
530,45,trophy,0.133580837738,left,1,correct,path,1,path1,beaver
531,45,astronaut,0.0835416413229,right,1,correct,path,2,path2,beaver
532,45,robot,0.0669393863745,right,1,correct,path,3,path3,beaver
533,45,pigeon,0.334092006075,left,1,correct,decision,1,decision1,beaver
534,45,bus,0.650227315056,left,1,correct,arm1,1,arm11,beaver
535,45,deer,0.0500745139389,left,1,correct,arm1,2,arm12,beaver
536,45,fist,0.0502674019554,left,1,correct,arm1,3,arm13,beaver
537,45,stepladder,0.634267416445,left,1,correct,decision,2,decision2,beaver
538,45,calc,0.467029581898,right,1,correct,arm2,1,arm21,beaver
539,45,tongue,0.233862381796,right,1,correct,arm2,2,arm22,beaver
540,45,beaver,4.15021237303,left,1,correct,arm2,3,arm23,beaver
541,46,beaver,0.933640485112,space,1,correct,target,NaN,targetNaN,beaver
542,46,trophy,0.233556598445,left,1,correct,path,1,path1,beaver
543,46,astronaut,0.733588444589,right,1,correct,path,2,path2,beaver
544,46,robot,0.0502592517576,right,1,correct,path,3,path3,beaver
545,46,pigeon,0.701023574296,right,1,correct,decision,1,decision1,beaver
546,46,bus,0.250297104899,left,1,correct,arm1,1,arm11,beaver
547,46,deer,0.0836397455569,left,1,correct,arm1,2,arm12,beaver
548,46,fist,0.117048010401,left,1,correct,arm1,3,arm13,beaver
549,46,stepladder,0.750060296371,right,1,correct,decision,2,decision2,beaver
550,46,calc,0.600287732171,right,1,correct,arm2,1,arm21,beaver
551,46,tongue,0.0335848524649,right,1,correct,arm2,2,arm22,beaver
552,46,beaver,0.116932398334,left,1,correct,arm2,3,arm23,beaver
553,47,arc,0.484145903032,space,1,correct,target,NaN,targetNaN,arc
554,47,trophy,0.18357656643,left,1,correct,path,1,path1,arc
555,47,astronaut,0.183588942657,right,1,correct,path,2,path2,arc
556,47,robot,0.0667241607787,right,1,correct,path,3,path3,arc
557,47,watch,0.450328015279,left,1,correct,decision,1,decision1,arc
558,47,clover,3.61692741766,left,1,correct,arm1,1,arm11,arc
559,47,radio,0.0669170487954,left,1,correct,arm1,2,arm12,arc
560,47,wing,0.133666565745,left,1,correct,arm1,3,arm13,arc
561,47,holly,0.883589818048,right,1,correct,decision,2,decision2,arc
562,47,match,0.516909396665,right,1,correct,arm2,1,arm21,arc
563,47,baby,0.133590799091,right,1,correct,arm2,2,arm22,arc
564,47,arc,0.166898544828,left,1,correct,arm2,3,arm23,arc
565,48,arc,0.816983986068,space,1,correct,target,NaN,targetNaN,arc
566,48,trophy,0.166904280152,left,1,correct,path,1,path1,arc
567,48,astronaut,0.53360854841,right,1,correct,path,2,path2,arc
568,48,robot,0.0669040688506,right,1,correct,path,3,path3,arc
569,48,watch,2.76695565658,right,1,correct,decision,1,decision1,arc
570,48,clover,0.450267945302,left,1,correct,arm1,1,arm11,arc
571,48,radio,0.0335504405182,left,1,correct,arm1,2,arm12,arc
572,48,wing,0.150266103961,left,1,correct,arm1,3,arm13,arc
573,48,holly,0.583688495815,left,1,correct,decision,2,decision2,arc
574,48,match,0.46698460488,right,1,correct,arm2,1,arm21,arc
575,48,baby,0.466946268764,right,1,correct,arm2,2,arm22,arc
576,48,arc,0.15046533102,left,1,correct,arm2,3,arm23,arc
577,49,beaver,1.13365690625,space,1,correct,target,NaN,targetNaN,beaver
578,49,trophy,0.316927387472,left,1,correct,path,1,path1,beaver
579,49,astronaut,2.30000968968,right,1,correct,path,2,path2,beaver
580,49,robot,0.133614645966,right,1,correct,path,3,path3,beaver
581,49,pigeon,0.383756897105,right,1,correct,decision,1,decision1,beaver
582,49,bus,0.216884915885,left,1,correct,arm1,1,arm11,beaver
583,49,deer,0.116999109214,left,1,correct,arm1,2,arm12,beaver
584,49,fist,0.133680451267,left,1,correct,arm1,3,arm13,beaver
585,49,stepladder,1.150272443,left,1,correct,decision,2,decision2,beaver
586,49,calc,0.61691926746,right,1,correct,arm2,1,arm21,beaver
587,49,tongue,0.217462372498,right,1,correct,arm2,2,arm22,beaver
588,49,beaver,0.200360540606,left,1,correct,arm2,3,arm23,beaver
589,50,arc,0.783947008017,space,1,correct,target,NaN,targetNaN,arc
590,50,trophy,0.200381972607,left,1,correct,path,1,path1,arc
591,50,astronaut,1.11691851281,right,1,correct,path,2,path2,arc
592,50,robot,0.0669188599502,right,1,correct,path,3,path3,arc
593,50,watch,1.06704171664,left,1,correct,decision,1,decision1,arc
594,50,clover,0.700264096597,left,1,correct,arm1,1,arm11,arc
595,50,radio,0.0502607610533,left,1,correct,arm1,2,arm12,arc
596,50,wing,0.200335788153,left,1,correct,arm1,3,arm13,arc
597,50,holly,0.45032771342,left,1,correct,decision,2,decision2,arc
598,50,match,0.500277861376,right,1,correct,arm2,1,arm21,arc
599,50,baby,0.100358518149,right,1,correct,arm2,2,arm22,arc
600,50,arc,0.100266752958,left,1,correct,arm2,3,arm23,arc
