pic_index,trial_num,pic_name,rt,resp,feedback_code,feedback,segment,segment_index,pic_type,trial_target
1,1,lion,7.06690165398,space,-1,miss,target,NaN,targetNaN,lion
2,1,coffeepot,4.58347357208,left,-1,miss,path,1,path1,lion
3,1,mosquito,1.0836017113,left,-1,miss,path,2,path2,lion
4,1,canoe,0.683629844576,right,-1,miss,path,3,path3,lion
5,1,goose,7.36681293756,right,-1,miss,decision,1,decision1,lion
6,1,sailor,3.23363357254,left,-1,miss,arm1,1,arm11,lion
7,1,cooker,1.5336278674,left,-1,miss,arm1,2,arm12,lion
8,1,tooth,0.683629240857,left,-1,miss,arm1,3,arm13,lion
9,1,garlic,7.38352084323,right,-1,miss,decision,2,decision2,lion
10,1,mug,5.91665366157,right,-1,miss,arm2,1,arm21,lion
11,1,branch,1.76694448779,left,-1,miss,arm2,2,arm22,lion
12,1,bolt,3.15022112694,right,-1,miss,arm2,3,arm23,lion
13,2,bolt,8.81684211225,space,-1,miss,target,NaN,targetNaN,bolt
14,2,coffeepot,5.11683942571,left,-1,miss,path,1,path1,bolt
15,2,mosquito,0.483585954251,left,-1,miss,path,2,path2,bolt
16,2,canoe,0.800302945874,right,-1,miss,path,3,path3,bolt
17,2,domino,3.15022112694,left,-1,miss,decision,1,decision1,bolt
18,2,ambulance,4.03353806429,left,-1,miss,arm1,1,arm11,bolt
19,2,trunk,0.966921667241,left,-1,miss,arm1,2,arm12,bolt
20,2,peach,0.850293241101,left,-1,miss,arm1,3,arm13,bolt
21,2,crutches,2.50036479682,left,-1,miss,decision,2,decision2,bolt
22,2,stapler,5.70018621693,right,-1,miss,arm2,1,arm21,bolt
23,2,rose,1.98377959692,right,-1,miss,arm2,2,arm22,bolt
24,2,lion,2.38341609809,left,-1,miss,arm2,3,arm23,bolt
25,3,lion,4.78358990861,space,0,wrong,target,NaN,targetNaN,lion
26,3,coffeepot,6.56687584502,left,0,wrong,path,1,path1,lion
27,3,mosquito,0.866946510251,left,0,wrong,path,2,path2,lion
28,3,canoe,0.11438017896,right,0,wrong,path,3,path3,lion
29,3,domino,7.86686017853,right,0,wrong,decision,1,decision1,lion
30,3,ambulance,2.16693537165,left,0,wrong,arm1,1,arm11,lion
31,3,trunk,0.400366094815,left,0,wrong,arm1,2,arm12,lion
32,3,peach,0.31691712426,left,0,wrong,arm1,3,arm13,lion
33,3,crutches,1.33359091983,right,0,wrong,decision,2,decision2,lion
34,3,stapler,2.31699017418,right,0,wrong,arm2,1,arm21,lion
35,3,rose,1.45034552311,right,0,wrong,arm2,2,arm22,lion
36,3,lion,1.63354567114,left,0,wrong,arm2,3,arm23,lion
37,4,bolt,4.48356210738,space,-1,miss,target,NaN,targetNaN,bolt
38,4,coffeepot,11.2167840949,left,-1,miss,path,1,path1,bolt
39,4,mosquito,0.450254361639,left,-1,miss,path,2,path2,bolt
40,4,canoe,0.683699875906,right,-1,miss,path,3,path3,bolt
41,4,goose,3.88340930626,right,-1,miss,decision,1,decision1,bolt
42,4,sailor,4.10031112626,left,-1,miss,arm1,1,arm11,bolt
43,4,cooker,0.783587493733,left,-1,miss,arm1,2,arm12,bolt
44,4,tooth,0.433723043598,left,-1,miss,arm1,3,arm13,bolt
45,4,crutches,4.78372846197,left,-1,miss,decision,2,decision2,bolt
46,4,stapler,3.98337480375,right,-1,miss,arm2,1,arm21,bolt
47,4,rose,0.483642100058,right,-1,miss,arm2,2,arm22,bolt
48,4,lion,0.333785015288,left,-1,miss,arm2,3,arm23,bolt
49,5,lion,2.98362021527,space,1,correct,target,NaN,targetNaN,lion
50,5,coffeepot,4.4169103928,left,1,correct,path,1,path1,lion
51,5,mosquito,0.516917848722,left,1,correct,path,2,path2,lion
52,5,canoe,0.700201611747,right,1,correct,path,3,path3,lion
53,5,goose,3.1001924956,left,1,correct,decision,1,decision1,lion
54,5,sailor,9.41689982773,left,1,correct,arm1,1,arm11,lion
55,5,cooker,0.250284124954,left,1,correct,arm1,2,arm12,lion
56,5,tooth,0.183550304682,left,1,correct,arm1,3,arm13,lion
57,5,crutches,1.90025153926,left,1,correct,decision,2,decision2,lion
58,5,stapler,1.45062413914,right,1,correct,arm2,1,arm21,lion
59,5,rose,1.08352866138,right,1,correct,arm2,2,arm22,lion
60,5,lion,0.25031129228,left,1,correct,arm2,3,arm23,lion
61,6,bolt,2.08359567412,space,0,wrong,target,NaN,targetNaN,bolt
62,6,coffeepot,14.0501490732,left,0,wrong,path,1,path1,bolt
63,6,mosquito,0.367037822654,left,0,wrong,path,2,path2,bolt
64,6,canoe,0.550370486866,right,0,wrong,path,3,path3,bolt
65,6,goose,2.78363247075,left,0,wrong,decision,1,decision1,bolt
66,6,sailor,2.38353352131,left,0,wrong,arm1,1,arm11,bolt
67,6,cooker,0.0836702333341,left,0,wrong,arm1,2,arm12,bolt
68,6,tooth,0.217045203111,left,0,wrong,arm1,3,arm13,bolt
69,6,garlic,2.85032493632,left,0,wrong,decision,2,decision2,bolt
70,6,mug,4.60023249194,right,0,wrong,arm2,1,arm21,bolt
71,6,branch,1.86694288794,left,0,wrong,arm2,2,arm22,bolt
72,6,bolt,2.03357760784,right,0,wrong,arm2,3,arm23,bolt
73,7,lion,3.50019092593,space,-1,miss,target,NaN,targetNaN,lion
74,7,coffeepot,25.3166421305,left,-1,miss,path,1,path1,lion
75,7,mosquito,0.550308605734,left,-1,miss,path,2,path2,lion
76,7,canoe,0.383612608417,right,-1,miss,path,3,path3,lion
77,7,domino,4.48358987842,left,-1,miss,decision,1,decision1,lion
78,7,ambulance,4.1502754616,left,-1,miss,arm1,1,arm11,lion
79,7,trunk,0.333641632177,left,-1,miss,arm1,2,arm12,lion
80,7,peach,0.200240098793,left,-1,miss,arm1,3,arm13,lion
81,7,garlic,1.91719821553,right,-1,miss,decision,2,decision2,lion
82,7,mug,2.0007151044,right,-1,miss,arm2,1,arm21,lion
83,7,branch,0.650282253427,left,-1,miss,arm2,2,arm22,lion
84,7,bolt,1.1002368689,right,-1,miss,arm2,3,arm23,lion
85,8,lion,1.31698323142,space,1,correct,target,NaN,targetNaN,lion
86,8,coffeepot,2.13357178196,left,1,correct,path,1,path1,lion
87,8,mosquito,0.250244279542,left,1,correct,path,2,path2,lion
88,8,canoe,2.05025381829,right,1,correct,path,3,path3,lion
89,8,goose,2.76688683269,right,1,correct,decision,1,decision1,lion
90,8,sailor,4.75025378811,left,1,correct,arm1,1,arm11,lion
91,8,cooker,0.116910060755,left,1,correct,arm1,2,arm12,lion
92,8,tooth,0.133619475713,left,1,correct,arm1,3,arm13,lion
93,8,crutches,4.13356997081,right,1,correct,decision,2,decision2,lion
94,8,stapler,4.38353563433,right,1,correct,arm2,1,arm21,lion
95,8,rose,0.500244053148,right,1,correct,arm2,2,arm22,lion
96,8,lion,0.566924142486,left,1,correct,arm2,3,arm23,lion
97,9,lion,3.2340021426,space,1,correct,target,NaN,targetNaN,lion
98,9,coffeepot,6.75015900432,left,1,correct,path,1,path1,lion
99,9,mosquito,0.416932126661,left,1,correct,path,2,path2,lion
100,9,canoe,0.300226424572,right,1,correct,path,3,path3,lion
101,9,goose,3.11653394422,right,1,correct,decision,1,decision1,lion
102,9,sailor,2.63355231205,left,1,correct,arm1,1,arm11,lion
103,9,cooker,0.116922436982,left,1,correct,arm1,2,arm12,lion
104,9,tooth,0.200340316041,left,1,correct,arm1,3,arm13,lion
105,9,crutches,5.18370757331,right,1,correct,decision,2,decision2,lion
106,9,stapler,8.85017219557,right,1,correct,arm2,1,arm21,lion
107,9,rose,0.68426223956,right,1,correct,arm2,2,arm22,lion
108,9,lion,2.06691161533,left,1,correct,arm2,3,arm23,lion
109,10,bolt,4.81690157851,space,1,correct,target,NaN,targetNaN,bolt
110,10,coffeepot,1.38379070533,left,1,correct,path,1,path1,bolt
111,10,mosquito,1.03356402418,left,1,correct,path,2,path2,bolt
112,10,canoe,0.25024880743,right,1,correct,path,3,path3,bolt
113,10,domino,18.3333491306,left,1,correct,decision,1,decision1,bolt
114,10,ambulance,4.60020562647,left,1,correct,arm1,1,arm11,bolt
115,10,trunk,0.483576294757,left,1,correct,arm1,2,arm12,bolt
116,10,peach,0.250262994811,left,1,correct,arm1,3,arm13,bolt
117,10,garlic,3.65019863843,left,1,correct,decision,2,decision2,bolt
118,10,mug,3.65033356949,right,1,correct,arm2,1,arm21,bolt
119,10,branch,0.566960667447,left,1,correct,arm2,2,arm22,bolt
120,10,bolt,0.600323351555,right,1,correct,arm2,3,arm23,bolt
121,11,lion,2.58358918414,space,0,wrong,target,NaN,targetNaN,lion
122,11,coffeepot,4.71686061622,left,0,wrong,path,1,path1,lion
123,11,mosquito,0.450283038261,left,0,wrong,path,2,path2,lion
124,11,canoe,0.433577245613,right,0,wrong,path,3,path3,lion
125,11,domino,19.8503973825,right,0,wrong,decision,1,decision1,lion
126,11,ambulance,3.31706111109,left,0,wrong,arm1,1,arm11,lion
127,11,trunk,0.0669131246259,left,0,wrong,arm1,2,arm12,lion
128,11,peach,0.0667507243866,left,0,wrong,arm1,3,arm13,lion
129,11,crutches,1.40036850969,right,0,wrong,decision,2,decision2,lion
130,11,stapler,6.33349040073,right,0,wrong,arm2,1,arm21,lion
131,11,rose,0.366711512879,right,0,wrong,arm2,2,arm22,lion
132,11,lion,0.466939024144,left,0,wrong,arm2,3,arm23,lion
133,12,lion,0.700827969547,space,1,correct,target,NaN,targetNaN,lion
134,12,coffeepot,2.66689145114,left,1,correct,path,1,path1,lion
135,12,mosquito,0.250208962018,left,1,correct,path,2,path2,lion
136,12,canoe,0.183588037079,right,1,correct,path,3,path3,lion
137,12,goose,2.20021927051,left,1,correct,decision,1,decision1,lion
138,12,sailor,6.91676957549,left,1,correct,arm1,1,arm11,lion
139,12,cooker,0.0669460272766,left,1,correct,arm1,2,arm12,lion
140,12,tooth,0.200274510739,left,1,correct,arm1,3,arm13,lion
141,12,crutches,1.01701942434,left,1,correct,decision,2,decision2,lion
142,12,stapler,1.86689006258,right,1,correct,arm2,1,arm21,lion
143,12,rose,0.333604503497,right,1,correct,arm2,2,arm22,lion
144,12,lion,0.200275416317,left,1,correct,arm2,3,arm23,lion
145,13,bolt,1.75041166046,space,0,wrong,target,NaN,targetNaN,bolt
146,13,coffeepot,3.60020260788,left,0,wrong,path,1,path1,bolt
147,13,mosquito,0.200350579253,left,0,wrong,path,2,path2,bolt
148,13,canoe,0.250033581834,right,0,wrong,path,3,path3,bolt
149,13,goose,2.21694589144,left,0,wrong,decision,1,decision1,bolt
150,13,sailor,7.60016970523,left,0,wrong,arm1,1,arm11,bolt
151,13,cooker,0.0500962477998,left,0,wrong,arm1,2,arm12,bolt
152,13,tooth,0.166909411758,left,0,wrong,arm1,3,arm13,bolt
153,13,garlic,2.20032190263,left,0,wrong,decision,2,decision2,bolt
154,13,mug,2.35069124243,right,0,wrong,arm2,1,arm21,bolt
155,13,branch,0.483598330477,left,0,wrong,arm2,2,arm22,bolt
156,13,bolt,0.516928715653,right,0,wrong,arm2,3,arm23,bolt
157,14,bolt,1.26701859422,space,1,correct,target,NaN,targetNaN,bolt
158,14,coffeepot,4.73330831927,left,1,correct,path,1,path1,bolt
159,14,mosquito,0.200253078737,left,1,correct,path,2,path2,bolt
160,14,canoe,0.167012345739,right,1,correct,path,3,path3,bolt
161,14,domino,1.73359176504,right,1,correct,decision,1,decision1,bolt
162,14,ambulance,12.0167679756,left,1,correct,arm1,1,arm11,bolt
163,14,trunk,0.100245320956,left,1,correct,arm1,2,arm12,bolt
164,14,peach,0.166909411758,left,1,correct,arm1,3,arm13,bolt
165,14,garlic,0.817166007155,right,1,correct,decision,2,decision2,bolt
166,14,mug,1.51694954394,right,1,correct,arm2,1,arm21,bolt
167,14,branch,0.450325902265,left,1,correct,arm2,2,arm22,bolt
168,14,bolt,0.216898499549,right,1,correct,arm2,3,arm23,bolt
169,15,bolt,1.53365443101,space,0,wrong,target,NaN,targetNaN,bolt
170,15,coffeepot,1.30024815843,left,0,wrong,path,1,path1,bolt
171,15,mosquito,0.433633995139,left,0,wrong,path,2,path2,bolt
172,15,canoe,0.433579962346,right,0,wrong,path,3,path3,bolt
173,15,goose,5.5669033142,left,0,wrong,decision,1,decision1,bolt
174,15,sailor,6.36684402906,left,0,wrong,arm1,1,arm11,bolt
175,15,cooker,0.0668859572996,left,0,wrong,arm1,2,arm12,bolt
176,15,tooth,0.0669013521178,left,0,wrong,arm1,3,arm13,bolt
177,15,garlic,0.733693189725,left,0,wrong,decision,2,decision2,bolt
178,15,mug,5.05029970089,right,0,wrong,arm2,1,arm21,bolt
179,15,branch,0.483569351996,left,0,wrong,arm2,2,arm22,bolt
180,15,bolt,0.133947898502,right,0,wrong,arm2,3,arm23,bolt
181,16,lion,1.00030517963,space,1,correct,target,NaN,targetNaN,lion
182,16,coffeepot,3.69998668801,left,1,correct,path,1,path1,lion
183,16,mosquito,0.350288260425,left,1,correct,path,2,path2,lion
184,16,canoe,0.217210923801,right,1,correct,path,3,path3,lion
185,16,goose,5.90058479179,right,1,correct,decision,1,decision1,lion
186,16,sailor,2.66713867381,left,1,correct,arm1,1,arm11,lion
187,16,cooker,0.0335948138178,left,1,correct,arm1,2,arm12,lion
188,16,tooth,0.06691161533,left,1,correct,arm1,3,arm13,lion
189,16,crutches,1.31661767995,right,1,correct,decision,2,decision2,lion
190,16,stapler,1.08384531166,right,1,correct,arm2,1,arm21,lion
191,16,rose,0.500208433764,right,1,correct,arm2,2,arm22,lion
192,16,lion,0.167293980354,left,1,correct,arm2,3,arm23,lion
193,17,bolt,0.916881263389,space,1,correct,target,NaN,targetNaN,bolt
194,17,coffeepot,3.36687361126,left,1,correct,path,1,path1,bolt
195,17,mosquito,0.400613921202,left,1,correct,path,2,path2,bolt
196,17,canoe,0.166907902462,right,1,correct,path,3,path3,bolt
197,17,domino,2.21771683979,left,1,correct,decision,1,decision1,bolt
198,17,ambulance,3.13359110095,left,1,correct,arm1,1,arm11,bolt
199,17,trunk,0.133572385681,left,1,correct,arm1,2,arm12,bolt
200,17,peach,0.167051285573,left,1,correct,arm1,3,arm13,bolt
201,17,garlic,1.40075579502,right,1,correct,decision,2,decision2,bolt
202,17,mug,1.60025211279,right,1,correct,arm2,1,arm21,bolt
203,17,branch,0.466927251636,left,1,correct,arm2,2,arm22,bolt
204,17,bolt,0.233581954617,right,1,correct,arm2,3,arm23,bolt
205,18,bolt,0.950353824239,space,-1,miss,target,NaN,targetNaN,bolt
206,18,coffeepot,1.55020114387,left,-1,miss,path,1,path1,bolt
207,18,mosquito,0.266940412696,left,-1,miss,path,2,path2,bolt
208,18,canoe,0.10022539825,right,-1,miss,path,3,path3,bolt
209,18,goose,4.31689357924,right,-1,miss,decision,1,decision1,bolt
210,18,sailor,4.50018730362,left,-1,miss,arm1,1,arm11,bolt
211,18,cooker,0.0669451216991,left,-1,miss,arm1,2,arm12,bolt
212,18,tooth,0.133560915032,left,-1,miss,arm1,3,arm13,bolt
213,18,crutches,1.50040252922,right,-1,miss,decision,2,decision2,bolt
214,18,stapler,3.38353050272,right,-1,miss,arm2,1,arm21,bolt
215,18,rose,0.400273725905,right,-1,miss,arm2,2,arm22,bolt
216,18,lion,0.216897292112,left,-1,miss,arm2,3,arm23,bolt
217,19,bolt,1.45027488806,space,0,wrong,target,NaN,targetNaN,bolt
218,19,coffeepot,5.01705715673,left,0,wrong,path,1,path1,bolt
219,19,mosquito,0.16693446607,left,0,wrong,path,2,path2,bolt
220,19,canoe,0.13356151875,right,0,wrong,path,3,path3,bolt
221,19,goose,1.56694829122,left,0,wrong,decision,1,decision1,bolt
222,19,sailor,10.2834499969,left,0,wrong,arm1,1,arm11,bolt
223,19,cooker,0.066898333526,left,0,wrong,arm1,2,arm12,bolt
224,19,tooth,0.166945031141,left,0,wrong,arm1,3,arm13,bolt
225,19,garlic,2.05032234033,left,0,wrong,decision,2,decision2,bolt
226,19,mug,5.93350645964,right,0,wrong,arm2,1,arm21,bolt
227,19,branch,0.383586950386,left,0,wrong,arm2,2,arm22,bolt
228,19,bolt,0.166759689604,right,0,wrong,arm2,3,arm23,bolt
229,20,lion,3.15090936588,space,1,correct,target,NaN,targetNaN,lion
230,20,coffeepot,6.15016135883,left,1,correct,path,1,path1,lion
231,20,mosquito,0.28341528307,left,1,correct,path,2,path2,lion
232,20,canoe,0.150356359856,right,1,correct,path,3,path3,lion
233,20,goose,2.83352949149,left,1,correct,decision,1,decision1,lion
234,20,sailor,4.55020808663,left,1,correct,arm1,1,arm11,lion
235,20,cooker,0.0671884201988,left,1,correct,arm1,2,arm12,lion
236,20,tooth,0.150244068241,left,1,correct,arm1,3,arm13,lion
237,20,crutches,0.950336316406,left,1,correct,decision,2,decision2,lion
238,20,stapler,1.95024364564,right,1,correct,arm2,1,arm21,lion
239,20,rose,0.416912505815,right,1,correct,arm2,2,arm22,lion
240,20,lion,0.233570182109,left,1,correct,arm2,3,arm23,lion
241,21,bolt,2.16712735409,space,1,correct,target,NaN,targetNaN,bolt
242,21,coffeepot,0.850246754787,left,1,correct,path,1,path1,bolt
243,21,mosquito,0.100241094928,left,1,correct,path,2,path2,bolt
244,21,canoe,0.233633572537,right,1,correct,path,3,path3,bolt
245,21,domino,1.00020284937,left,1,correct,decision,1,decision1,bolt
246,21,ambulance,2.56692897223,left,1,correct,arm1,1,arm11,bolt
247,21,trunk,0.0669079930199,left,1,correct,arm1,2,arm12,bolt
248,21,peach,0.150206939561,left,1,correct,arm1,3,arm13,bolt
249,21,garlic,0.600259961127,left,1,correct,decision,2,decision2,bolt
250,21,mug,1.63359638349,right,1,correct,arm2,1,arm21,bolt
251,21,branch,0.433594753446,left,1,correct,arm2,2,arm22,bolt
252,21,bolt,0.133558802018,right,1,correct,arm2,3,arm23,bolt
253,22,bolt,1.20033126027,space,1,correct,target,NaN,targetNaN,bolt
254,22,coffeepot,1.00023333715,left,1,correct,path,1,path1,bolt
255,22,mosquito,0.183729609035,left,1,correct,path,2,path2,bolt
256,22,canoe,0.150251312861,right,1,correct,path,3,path3,bolt
257,22,domino,1.45029873494,left,1,correct,decision,1,decision1,bolt
258,22,ambulance,4.28358583351,left,1,correct,arm1,1,arm11,bolt
259,22,trunk,0.0837949011758,left,1,correct,arm1,2,arm12,bolt
260,22,peach,0.183557247443,left,1,correct,arm1,3,arm13,bolt
261,22,garlic,0.466953211525,left,1,correct,decision,2,decision2,bolt
262,22,mug,0.816967383814,right,1,correct,arm2,1,arm21,bolt
263,22,branch,0.366940020279,left,1,correct,arm2,2,arm22,bolt
264,22,bolt,0.301044764811,right,1,correct,arm2,3,arm23,bolt
265,23,lion,1.08365483852,space,1,correct,target,NaN,targetNaN,lion
266,23,coffeepot,0.850366592882,left,1,correct,path,1,path1,lion
267,23,mosquito,0.133566952215,left,1,correct,path,2,path2,lion
268,23,canoe,0.150242558945,right,1,correct,path,3,path3,lion
269,23,goose,1.86677716725,right,1,correct,decision,1,decision1,lion
270,23,sailor,0.866944699096,left,1,correct,arm1,1,arm11,lion
271,23,cooker,0.0506124269991,left,1,correct,arm1,2,arm12,lion
272,23,tooth,0.183835863467,left,1,correct,arm1,3,arm13,lion
273,23,crutches,4.53365805332,left,1,correct,decision,2,decision2,lion
274,23,stapler,3.91688699871,right,1,correct,arm2,1,arm21,lion
275,23,rose,0.333636500571,right,1,correct,arm2,2,arm22,lion
276,23,lion,0.200273907021,left,1,correct,arm2,3,arm23,lion
277,24,lion,0.983615083662,space,1,correct,target,NaN,targetNaN,lion
278,24,coffeepot,1.9008597855,left,1,correct,path,1,path1,lion
279,24,mosquito,0.11692666301,left,1,correct,path,2,path2,lion
280,24,canoe,0.166839380428,right,1,correct,path,3,path3,lion
281,24,goose,1.05099759931,right,1,correct,decision,1,decision1,lion
282,24,sailor,6.21682695892,left,1,correct,arm1,1,arm11,lion
283,24,cooker,0.100216342475,left,1,correct,arm1,2,arm12,lion
284,24,tooth,0.183754059629,left,1,correct,arm1,3,arm13,lion
285,24,crutches,0.566971232518,right,1,correct,decision,2,decision2,lion
286,24,stapler,3.03353142339,right,1,correct,arm2,1,arm21,lion
287,24,rose,0.316884221609,right,1,correct,arm2,2,arm22,lion
288,24,lion,0.233581954617,left,1,correct,arm2,3,arm23,lion
289,25,bolt,1.13363155008,space,1,correct,target,NaN,targetNaN,bolt
290,25,coffeepot,0.883538200128,left,1,correct,path,1,path1,bolt
291,25,mosquito,0.100241396787,left,1,correct,path,2,path2,bolt
292,25,canoe,0.133604986472,right,1,correct,path,3,path3,bolt
293,25,domino,0.916752973237,left,1,correct,decision,1,decision1,bolt
294,25,ambulance,1.55024129114,left,1,correct,arm1,1,arm11,bolt
295,25,trunk,0.050233291868,left,1,correct,arm1,2,arm12,bolt
296,25,peach,0.133654189519,left,1,correct,arm1,3,arm13,bolt
297,25,garlic,0.833573261072,left,1,correct,decision,2,decision2,bolt
298,25,mug,3.95019202772,right,1,correct,arm2,1,arm21,bolt
299,25,branch,0.450301149812,left,1,correct,arm2,2,arm22,bolt
300,25,bolt,0.133615249684,right,1,correct,arm2,3,arm23,bolt
301,26,bolt,0.750342836565,space,1,correct,target,NaN,targetNaN,bolt
302,26,coffeepot,0.766886228973,left,1,correct,path,1,path1,bolt
303,26,mosquito,0.066961723954,left,1,correct,path,2,path2,bolt
304,26,canoe,0.166941106972,right,1,correct,path,3,path3,bolt
305,26,domino,0.867062424177,right,1,correct,decision,1,decision1,bolt
306,26,ambulance,1.48361855504,left,1,correct,arm1,1,arm11,bolt
307,26,trunk,0.0341864578123,left,1,correct,arm1,2,arm12,bolt
308,26,peach,0.133576007991,left,1,correct,arm1,3,arm13,bolt
309,26,garlic,0.316997116943,left,1,correct,decision,2,decision2,bolt
310,26,mug,0.783624018694,right,1,correct,arm2,1,arm21,bolt
311,26,branch,0.33358880682,left,1,correct,arm2,2,arm22,bolt
312,26,bolt,0.133664452731,right,1,correct,arm2,3,arm23,bolt
313,27,lion,0.83364027381,space,1,correct,target,NaN,targetNaN,lion
314,27,coffeepot,1.43357603818,left,1,correct,path,1,path1,lion
315,27,mosquito,0.0836020131592,left,1,correct,path,2,path2,lion
316,27,canoe,0.200827818618,right,1,correct,path,3,path3,lion
317,27,goose,0.483672285977,right,1,correct,decision,1,decision1,lion
318,27,sailor,1.3835972136,left,1,correct,arm1,1,arm11,lion
319,27,cooker,0.0336243960176,left,1,correct,arm1,2,arm12,lion
320,27,tooth,0.0835911462287,left,1,correct,arm1,3,arm13,lion
321,27,crutches,0.633606042979,right,1,correct,decision,2,decision2,lion
322,27,stapler,2.70024960736,right,1,correct,arm2,1,arm21,lion
323,27,rose,0.517562619932,right,1,correct,arm2,2,arm22,lion
324,27,lion,0.200052040523,left,1,correct,arm2,3,arm23,lion
325,28,lion,2.96695245688,space,1,correct,target,NaN,targetNaN,lion
326,28,coffeepot,2.71688174636,left,1,correct,path,1,path1,lion
327,28,mosquito,0.150613543878,left,1,correct,path,2,path2,lion
328,28,canoe,0.166935673507,right,1,correct,path,3,path3,lion
329,28,goose,0.950297376572,right,1,correct,decision,1,decision1,lion
330,28,sailor,1.08424980296,left,1,correct,arm1,1,arm11,lion
331,28,cooker,0.0675216727345,left,1,correct,arm1,2,arm12,lion
332,28,tooth,0.133615853403,left,1,correct,arm1,3,arm13,lion
333,28,crutches,0.266933771794,right,1,correct,decision,2,decision2,lion
334,28,stapler,0.850246151069,right,1,correct,arm2,1,arm21,lion
335,28,rose,0.31704239582,right,1,correct,arm2,2,arm22,lion
336,28,lion,0.216987849866,left,1,correct,arm2,3,arm23,lion
337,29,lion,1.51700689718,space,1,correct,target,NaN,targetNaN,lion
338,29,coffeepot,4.20022259096,left,1,correct,path,1,path1,lion
339,29,mosquito,0.533600096353,left,1,correct,path,2,path2,lion
340,29,canoe,0.116902212416,right,1,correct,path,3,path3,lion
341,29,goose,1.08386493251,right,1,correct,decision,1,decision1,lion
342,29,sailor,2.53349595494,left,1,correct,arm1,1,arm11,lion
343,29,cooker,0.0675304266508,left,1,correct,arm1,2,arm12,lion
344,29,tooth,0.150060235999,left,1,correct,arm1,3,arm13,lion
345,29,crutches,0.417026910444,right,1,correct,decision,2,decision2,lion
346,29,stapler,1.85033187908,right,1,correct,arm2,1,arm21,lion
347,29,rose,0.350304560821,right,1,correct,arm2,2,arm22,lion
348,29,lion,0.216917214818,left,1,correct,arm2,3,arm23,lion
349,30,lion,0.833566318311,space,1,correct,target,NaN,targetNaN,lion
350,30,coffeepot,0.767035045549,left,1,correct,path,1,path1,lion
351,30,mosquito,0.0503395462997,left,1,correct,path,2,path2,lion
352,30,canoe,0.167390273433,right,1,correct,path,3,path3,lion
353,30,goose,1.03363797968,left,1,correct,decision,1,decision1,lion
354,30,sailor,0.833772488132,left,1,correct,arm1,1,arm11,lion
355,30,cooker,0.0669221804012,left,1,correct,arm1,2,arm12,lion
356,30,tooth,0.133640303996,left,1,correct,arm1,3,arm13,lion
357,30,crutches,0.616997750847,right,1,correct,decision,2,decision2,lion
358,30,stapler,0.883571706497,right,1,correct,arm2,1,arm21,lion
359,30,rose,0.250246996275,right,1,correct,arm2,2,arm22,lion
360,30,lion,0.166929032605,left,1,correct,arm2,3,arm23,lion
361,31,bolt,0.883636002503,space,1,correct,target,NaN,targetNaN,bolt
362,31,coffeepot,0.933580415135,left,1,correct,path,1,path1,bolt
363,31,mosquito,0.333560733916,left,1,correct,path,2,path2,bolt
364,31,canoe,0.11709993018,right,1,correct,path,3,path3,bolt
365,31,domino,0.650349869883,right,1,correct,decision,1,decision1,bolt
366,31,ambulance,0.966944910398,left,1,correct,arm1,1,arm11,bolt
367,31,trunk,0.400254105058,left,1,correct,arm1,2,arm12,bolt
368,31,peach,0.116913381206,left,1,correct,arm1,3,arm13,bolt
369,31,garlic,0.783605907143,left,1,correct,decision,2,decision2,bolt
370,31,mug,0.91692141066,right,1,correct,arm2,1,arm21,bolt
371,31,branch,0.333709550492,left,1,correct,arm2,2,arm22,bolt
372,31,bolt,0.150260066777,right,1,correct,arm2,3,arm23,bolt
373,32,bolt,0.450404083793,space,1,correct,target,NaN,targetNaN,bolt
374,32,coffeepot,0.500230167625,left,1,correct,path,1,path1,bolt
375,32,mosquito,0.0669469328541,left,1,correct,path,2,path2,bolt
376,32,canoe,0.133677734535,right,1,correct,path,3,path3,bolt
377,32,domino,3.08401314536,right,1,correct,decision,1,decision1,bolt
378,32,ambulance,1.35021339935,left,1,correct,arm1,1,arm11,bolt
379,32,trunk,0.05024355508,left,1,correct,arm1,2,arm12,bolt
380,32,peach,0.116890741768,left,1,correct,arm1,3,arm13,bolt
381,32,garlic,0.317066846414,right,1,correct,decision,2,decision2,bolt
382,32,mug,2.6835830564,right,1,correct,arm2,1,arm21,bolt
383,32,branch,0.383682639746,left,1,correct,arm2,2,arm22,bolt
384,32,bolt,0.10008533559,right,1,correct,arm2,3,arm23,bolt
385,33,lion,0.450061171763,space,1,correct,target,NaN,targetNaN,lion
386,33,coffeepot,0.466718365082,left,1,correct,path,1,path1,lion
387,33,mosquito,0.13360951436,left,1,correct,path,2,path2,lion
388,33,canoe,0.216932609636,right,1,correct,path,3,path3,lion
389,33,goose,0.800443612252,right,1,correct,decision,1,decision1,lion
390,33,sailor,0.966902046394,left,1,correct,arm1,1,arm11,lion
391,33,cooker,0.0338522996992,left,1,correct,arm1,2,arm12,lion
392,33,tooth,0.183598300291,left,1,correct,arm1,3,arm13,lion
393,33,crutches,2.25023703492,left,1,correct,decision,2,decision2,lion
394,33,stapler,1.01692222568,right,1,correct,arm2,1,arm21,lion
395,33,rose,0.31689871085,right,1,correct,arm2,2,arm22,lion
396,33,lion,0.0836065410469,left,1,correct,arm2,3,arm23,lion
397,34,lion,0.650323608135,space,1,correct,target,NaN,targetNaN,lion
398,34,coffeepot,0.650674972221,left,1,correct,path,1,path1,lion
399,34,mosquito,0.0335610055895,left,1,correct,path,2,path2,lion
400,34,canoe,0.200928639584,right,1,correct,path,3,path3,lion
401,34,goose,2.66700917622,right,1,correct,decision,1,decision1,lion
402,34,sailor,0.616882742499,left,1,correct,arm1,1,arm11,lion
403,34,cooker,0.383613212135,left,1,correct,arm1,2,arm12,lion
404,34,tooth,0.216914799944,left,1,correct,arm1,3,arm13,lion
405,34,crutches,0.333867120985,left,1,correct,decision,2,decision2,lion
406,34,stapler,1.81748205372,right,1,correct,arm2,1,arm21,lion
407,34,rose,0.216992679613,right,1,correct,arm2,2,arm22,lion
408,34,lion,0.166934164211,left,1,correct,arm2,3,arm23,lion
409,35,lion,0.817019605452,space,1,correct,target,NaN,targetNaN,lion
410,35,coffeepot,4.50019303895,left,1,correct,path,1,path1,lion
411,35,mosquito,0.0669146339219,left,1,correct,path,2,path2,lion
412,35,canoe,0.383584837372,right,1,correct,path,3,path3,lion
413,35,goose,2.63372859781,left,1,correct,decision,1,decision1,lion
414,35,sailor,0.766707528338,left,1,correct,arm1,1,arm11,lion
415,35,cooker,0.0337246132656,left,1,correct,arm1,2,arm12,lion
416,35,tooth,0.100248641407,left,1,correct,arm1,3,arm13,lion
417,35,crutches,0.616946132927,right,1,correct,decision,2,decision2,lion
418,35,stapler,2.75027612569,right,1,correct,arm2,1,arm21,lion
419,35,rose,0.383563707229,right,1,correct,arm2,2,arm22,lion
420,35,lion,0.600266602029,left,1,correct,arm2,3,arm23,lion
421,36,bolt,1.48360466952,space,1,correct,target,NaN,targetNaN,bolt
422,36,coffeepot,0.750244732331,left,1,correct,path,1,path1,bolt
423,36,mosquito,0.0335676464915,left,1,correct,path,2,path2,bolt
424,36,canoe,0.366908626924,right,1,correct,path,3,path3,bolt
425,36,domino,2.51690969852,left,1,correct,decision,1,decision1,bolt
426,36,ambulance,2.20024190995,left,1,correct,arm1,1,arm11,bolt
427,36,trunk,0.250266918981,left,1,correct,arm1,2,arm12,bolt
428,36,peach,1.83357990197,left,1,correct,arm1,3,arm13,bolt
429,36,garlic,1.41700396915,left,1,correct,decision,2,decision2,bolt
430,36,mug,3.81683848994,right,1,correct,arm2,1,arm21,bolt
431,36,branch,0.483585954251,left,1,correct,arm2,2,arm22,bolt
432,36,bolt,0.150246483114,right,1,correct,arm2,3,arm23,bolt
433,37,lion,0.783709746701,space,1,correct,target,NaN,targetNaN,lion
434,37,coffeepot,0.533581381084,left,1,correct,path,1,path1,lion
435,37,mosquito,0.0169065290027,left,1,correct,path,2,path2,lion
436,37,canoe,0.200254588033,right,1,correct,path,3,path3,lion
437,37,goose,0.517247177088,right,1,correct,decision,1,decision1,lion
438,37,sailor,0.500087388233,left,1,correct,arm1,1,arm11,lion
439,37,cooker,0.516887059086,left,1,correct,arm1,2,arm12,lion
440,37,tooth,0.0503274719324,left,1,correct,arm1,3,arm13,lion
441,37,crutches,1.10034614192,right,1,correct,decision,2,decision2,lion
442,37,stapler,1.10042824762,right,1,correct,arm2,1,arm21,lion
443,37,rose,0.366836180721,right,1,correct,arm2,2,arm22,lion
444,37,lion,0.150246784973,left,1,correct,arm2,3,arm23,lion
445,38,bolt,0.433319156014,space,1,correct,target,NaN,targetNaN,bolt
446,38,coffeepot,0.216981812682,left,1,correct,path,1,path1,bolt
447,38,mosquito,0.0502281602619,left,1,correct,path,2,path2,bolt
448,38,canoe,0.0835353022803,right,1,correct,path,3,path3,bolt
449,38,domino,1.51694411047,right,1,correct,decision,1,decision1,bolt
450,38,ambulance,0.683586376854,left,1,correct,arm1,1,arm11,bolt
451,38,trunk,0.0335474219264,left,1,correct,arm1,2,arm12,bolt
452,38,peach,0.100764820607,left,1,correct,arm1,3,arm13,bolt
453,38,garlic,0.483725413192,left,1,correct,decision,2,decision2,bolt
454,38,mug,0.950216780171,right,1,correct,arm2,1,arm21,bolt
455,38,branch,0.366974130366,left,1,correct,arm2,2,arm22,bolt
456,38,bolt,0.0169910495733,right,1,correct,arm2,3,arm23,bolt
457,39,bolt,0.216955550934,space,1,correct,target,NaN,targetNaN,bolt
458,39,coffeepot,0.650287988751,left,1,correct,path,1,path1,bolt
459,39,mosquito,0.033561911167,left,1,correct,path,2,path2,bolt
460,39,canoe,0.133576611709,right,1,correct,path,3,path3,bolt
461,39,domino,0.283921199057,right,1,correct,decision,1,decision1,bolt
462,39,ambulance,0.850101258662,left,1,correct,arm1,1,arm11,bolt
463,39,trunk,0.0336026621565,left,1,correct,arm1,2,arm12,bolt
464,39,peach,0.0669128227667,left,1,correct,arm1,3,arm13,bolt
465,39,garlic,0.833891722508,left,1,correct,decision,2,decision2,bolt
466,39,mug,0.816926632824,right,1,correct,arm2,1,arm21,bolt
467,39,branch,0.283770571326,left,1,correct,arm2,2,arm22,bolt
468,39,bolt,0.0172322350588,right,1,correct,arm2,3,arm23,bolt
469,40,bolt,0.434229261444,space,1,correct,target,NaN,targetNaN,bolt
470,40,coffeepot,0.400243841846,left,1,correct,path,1,path1,bolt
471,40,mosquito,0.100265847381,left,1,correct,path,2,path2,bolt
472,40,canoe,0.0835594510147,right,1,correct,path,3,path3,bolt
473,40,domino,2.35019589152,right,1,correct,decision,1,decision1,bolt
474,40,ambulance,1.80024981866,left,1,correct,arm1,1,arm11,bolt
475,40,trunk,0.0169128680457,left,1,correct,arm1,2,arm12,bolt
476,40,peach,0.0669312361767,left,1,correct,arm1,3,arm13,bolt
477,40,garlic,0.566905729076,right,1,correct,decision,2,decision2,bolt
478,40,mug,1.08363189722,right,1,correct,arm2,1,arm21,bolt
479,40,branch,0.166762104478,left,1,correct,arm2,2,arm22,bolt
480,40,bolt,0.150246784973,right,1,correct,arm2,3,arm23,bolt
481,41,lion,0.500247675458,space,1,correct,target,NaN,targetNaN,lion
482,41,coffeepot,0.700241457159,left,1,correct,path,1,path1,lion
483,41,mosquito,0.0169418465271,left,1,correct,path,2,path2,lion
484,41,canoe,0.216907253465,right,1,correct,path,3,path3,lion
485,41,goose,0.616724568288,right,1,correct,decision,1,decision1,lion
486,41,sailor,0.366949377914,left,1,correct,arm1,1,arm11,lion
487,41,cooker,0.366694306906,left,1,correct,arm1,2,arm12,lion
488,41,tooth,0.0503555448363,left,1,correct,arm1,3,arm13,lion
489,41,crutches,0.383692902959,left,1,correct,decision,2,decision2,lion
490,41,stapler,0.733607763577,right,1,correct,arm2,1,arm21,lion
491,41,rose,0.383602647064,right,1,correct,arm2,2,arm22,lion
492,41,lion,0.183671048354,left,1,correct,arm2,3,arm23,lion
493,42,bolt,0.866977299888,space,1,correct,target,NaN,targetNaN,bolt
494,42,coffeepot,0.584289799303,left,1,correct,path,1,path1,bolt
495,42,mosquito,0.0502972860143,left,1,correct,path,2,path2,bolt
496,42,canoe,0.20024462668,right,1,correct,path,3,path3,bolt
497,42,domino,0.450316242771,left,1,correct,decision,1,decision1,bolt
498,42,ambulance,3.1170923837,left,1,correct,arm1,1,arm11,bolt
499,42,trunk,0.0335637223222,left,1,correct,arm1,2,arm12,bolt
500,42,peach,0.233600066167,left,1,correct,arm1,3,arm13,bolt
501,42,garlic,2.15026368909,left,1,correct,decision,2,decision2,bolt
502,42,mug,2.41686330277,right,1,correct,arm2,1,arm21,bolt
503,42,branch,0.550445347943,left,1,correct,arm2,2,arm22,bolt
504,42,bolt,0.0670845806408,right,1,correct,arm2,3,arm23,bolt
505,43,bolt,0.700311790348,space,1,correct,target,NaN,targetNaN,bolt
506,43,coffeepot,0.933632033055,left,1,correct,path,1,path1,bolt
507,43,mosquito,0.0502257453884,left,1,correct,path,2,path2,bolt
508,43,canoe,0.233604594055,right,1,correct,path,3,path3,bolt
509,43,domino,0.383868585002,left,1,correct,decision,1,decision1,bolt
510,43,ambulance,0.500387436259,left,1,correct,arm1,1,arm11,bolt
511,43,trunk,0.0843291919259,left,1,correct,arm1,2,arm12,bolt
512,43,peach,0.0502692131104,left,1,correct,arm1,3,arm13,bolt
513,43,garlic,1.16704977628,left,1,correct,decision,2,decision2,bolt
514,43,mug,1.23356565422,right,1,correct,arm2,1,arm21,bolt
515,43,branch,0.216903027436,left,1,correct,arm2,2,arm22,bolt
516,43,bolt,0.0836008057227,right,1,correct,arm2,3,arm23,bolt
517,44,bolt,0.417084263689,space,1,correct,target,NaN,targetNaN,bolt
518,44,coffeepot,0.283617528721,left,1,correct,path,1,path1,bolt
519,44,mosquito,0.266871286944,left,1,correct,path,2,path2,bolt
520,44,canoe,0.100298448172,right,1,correct,path,3,path3,bolt
521,44,domino,1.65027893298,right,1,correct,decision,1,decision1,bolt
522,44,ambulance,0.616918060023,left,1,correct,arm1,1,arm11,bolt
523,44,trunk,0.0502299714169,left,1,correct,arm1,2,arm12,bolt
524,44,peach,0.100360027445,left,1,correct,arm1,3,arm13,bolt
525,44,garlic,0.833635745923,left,1,correct,decision,2,decision2,bolt
526,44,mug,3.38353835106,right,1,correct,arm2,1,arm21,bolt
527,44,branch,0.233514036301,left,1,correct,arm2,2,arm22,bolt
528,44,bolt,0.0835835997493,right,1,correct,arm2,3,arm23,bolt
529,45,lion,0.5336640905,space,1,correct,target,NaN,targetNaN,lion
530,45,coffeepot,0.450267643443,left,1,correct,path,1,path1,lion
531,45,mosquito,0.0335767022671,left,1,correct,path,2,path2,lion
532,45,canoe,0.133592006527,right,1,correct,path,3,path3,lion
533,45,goose,0.317074091034,right,1,correct,decision,1,decision1,lion
534,45,sailor,0.383679923014,left,1,correct,arm1,1,arm11,lion
535,45,cooker,0.217285181159,left,1,correct,arm1,2,arm12,lion
536,45,tooth,0.483709414656,left,1,correct,arm1,3,arm13,lion
537,45,crutches,0.400300893231,right,1,correct,decision,2,decision2,lion
538,45,stapler,0.783608925735,right,1,correct,arm2,1,arm21,lion
539,45,rose,0.783573004492,right,1,correct,arm2,2,arm22,lion
540,45,lion,0.333550470704,left,1,correct,arm2,3,arm23,lion
541,46,bolt,0.833686458265,space,1,correct,target,NaN,targetNaN,bolt
542,46,coffeepot,2.11722852219,left,1,correct,path,1,path1,bolt
543,46,mosquito,0.0508219172707,left,1,correct,path,2,path2,bolt
544,46,canoe,0.233575917433,right,1,correct,path,3,path3,bolt
545,46,domino,0.68383480696,left,1,correct,decision,1,decision1,bolt
546,46,ambulance,0.833700947506,left,1,correct,arm1,1,arm11,bolt
547,46,trunk,0.033567042773,left,1,correct,arm1,2,arm12,bolt
548,46,peach,0.167017477345,left,1,correct,arm1,3,arm13,bolt
549,46,garlic,1.05069332526,left,1,correct,decision,2,decision2,bolt
550,46,mug,1.40030813785,right,1,correct,arm2,1,arm21,bolt
551,46,branch,0.150280291342,left,1,correct,arm2,2,arm22,bolt
552,46,bolt,0.16691605266,right,1,correct,arm2,3,arm23,bolt
553,47,lion,0.783764081353,space,1,correct,target,NaN,targetNaN,lion
554,47,coffeepot,0.467026261447,left,1,correct,path,1,path1,lion
555,47,mosquito,0.0669469328541,left,1,correct,path,2,path2,lion
556,47,canoe,0.150231088296,right,1,correct,path,3,path3,lion
557,47,goose,0.516905170636,left,1,correct,decision,1,decision1,lion
558,47,sailor,0.800254648405,left,1,correct,arm1,1,arm11,lion
559,47,cooker,0.0502203119233,left,1,correct,arm1,2,arm12,lion
560,47,tooth,0.11691941839,left,1,correct,arm1,3,arm13,lion
561,47,crutches,0.733612291464,left,1,correct,decision,2,decision2,lion
562,47,stapler,0.717091840354,right,1,correct,arm2,1,arm21,lion
563,47,rose,0.383615928868,right,1,correct,arm2,2,arm22,lion
564,47,lion,0.266882455733,left,1,correct,arm2,3,arm23,lion
565,48,bolt,0.567005946324,space,-1,miss,target,NaN,targetNaN,bolt
566,48,coffeepot,2.63357585706,left,-1,miss,path,1,path1,bolt
567,48,mosquito,0.800534170007,left,-1,miss,path,2,path2,bolt
568,48,canoe,0.466922723748,right,-1,miss,path,3,path3,bolt
569,48,goose,0.66701913757,left,-1,miss,decision,1,decision1,bolt
570,48,sailor,2.36696899876,left,-1,miss,arm1,1,arm11,bolt
571,48,cooker,0.0508795723742,left,-1,miss,arm1,2,arm12,bolt
572,48,tooth,0.116959263802,left,-1,miss,arm1,3,arm13,bolt
573,48,crutches,0.383586648527,right,-1,miss,decision,2,decision2,bolt
574,48,stapler,0.800711965064,right,-1,miss,arm2,1,arm21,bolt
575,48,rose,0.316931009782,right,-1,miss,arm2,2,arm22,bolt
576,48,lion,0.217079011339,left,-1,miss,arm2,3,arm23,bolt
577,49,lion,1.63368965797,space,1,correct,target,NaN,targetNaN,lion
578,49,coffeepot,0.883565971173,left,1,correct,path,1,path1,lion
579,49,mosquito,0.366855499708,left,1,correct,path,2,path2,lion
580,49,canoe,0.183768548869,right,1,correct,path,3,path3,lion
581,49,goose,0.483642401918,right,1,correct,decision,1,decision1,lion
582,49,sailor,1.78358236213,left,1,correct,arm1,1,arm11,lion
583,49,cooker,0.0502514034188,left,1,correct,arm1,2,arm12,lion
584,49,tooth,0.100272790142,left,1,correct,arm1,3,arm13,lion
585,49,crutches,4.00087388233,right,1,correct,decision,2,decision2,lion
586,49,stapler,1.33357975104,right,1,correct,arm2,1,arm21,lion
587,49,rose,0.333535377745,right,1,correct,arm2,2,arm22,lion
588,49,lion,0.183680405989,left,1,correct,arm2,3,arm23,lion
589,50,lion,1.06698466525,space,1,correct,target,NaN,targetNaN,lion
590,50,coffeepot,0.383747539471,left,1,correct,path,1,path1,lion
591,50,mosquito,0.0168956620723,left,1,correct,path,2,path2,lion
592,50,canoe,0.633568008722,right,1,correct,path,3,path3,lion
593,50,goose,0.866951641857,right,1,correct,decision,1,decision1,lion
594,50,sailor,1.61698778949,left,1,correct,arm1,1,arm11,lion
595,50,cooker,0.250272050587,left,1,correct,arm1,2,arm12,lion
596,50,tooth,0.116918512812,left,1,correct,arm1,3,arm13,lion
597,50,crutches,0.933625090294,left,1,correct,decision,2,decision2,lion
598,50,stapler,1.23363508183,right,1,correct,arm2,1,arm21,lion
599,50,rose,0.317003757845,right,1,correct,arm2,2,arm22,lion
600,50,lion,0.217235072535,left,1,correct,arm2,3,arm23,lion
