pic_index,trial_num,pic_name,rt,resp,feedback_code,feedback,segment,segment_index,pic_type,trial_target
1,1,bolt,1.20031284684,space,1,correct,target,NaN,targetNaN,bolt
2,1,coffeepot,0.250225866126,left,1,correct,path,1,path1,bolt
3,1,mosquito,0.46690642336,left,1,correct,path,2,path2,bolt
4,1,canoe,0.933538758545,right,1,correct,path,3,path3,bolt
5,1,domino,1.16697159476,right,1,correct,decision,1,decision1,bolt
6,1,ambulance,0.633576460794,right,1,correct,arm1,1,arm11,bolt
7,1,trunk,0.366882968898,left,1,correct,arm1,2,arm12,bolt
8,1,peach,0.233605499612,left,1,correct,arm1,3,arm13,bolt
9,1,garlic,0.616900854046,right,1,correct,decision,2,decision2,bolt
10,1,mug,0.900305873918,right,1,correct,arm2,1,arm21,bolt
11,1,branch,0.150242860807,left,1,correct,arm2,2,arm22,bolt
12,1,bolt,0.266925319738,right,1,correct,arm2,3,arm23,bolt
13,2,bolt,0.616977526282,space,1,correct,target,NaN,targetNaN,bolt
14,2,coffeepot,0.18358079248,left,1,correct,path,1,path1,bolt
15,2,mosquito,0.166935069778,left,1,correct,path,2,path2,bolt
16,2,canoe,0.183591659385,right,1,correct,path,3,path3,bolt
17,2,domino,0.450560144964,right,1,correct,decision,1,decision1,bolt
18,2,ambulance,0.416860284167,right,1,correct,arm1,1,arm11,bolt
19,2,trunk,0.167032872181,left,1,correct,arm1,2,arm12,bolt
20,2,peach,0.233596443839,left,1,correct,arm1,3,arm13,bolt
21,2,garlic,0.41702600487,left,1,correct,decision,2,decision2,bolt
22,2,mug,0.333613559284,right,1,correct,arm2,1,arm21,bolt
23,2,branch,0.133585365635,left,1,correct,arm2,2,arm22,bolt
24,2,bolt,0.200373218686,right,1,correct,arm2,3,arm23,bolt
25,3,lion,1.01700946299,space,1,correct,target,NaN,targetNaN,lion
26,3,coffeepot,0.450233835203,left,1,correct,path,1,path1,lion
27,3,mosquito,0.183616110007,left,1,correct,path,2,path2,lion
28,3,canoe,0.233574106271,right,1,correct,path,3,path3,lion
29,3,goose,0.550291399763,left,1,correct,decision,1,decision1,lion
30,3,sailor,0.366943944449,right,1,correct,arm1,1,arm11,lion
31,3,cooker,0.166943823715,right,1,correct,arm1,2,arm12,lion
32,3,tooth,0.200289905566,right,1,correct,arm1,3,arm13,lion
33,3,crutches,0.333560432045,right,1,correct,decision,2,decision2,lion
34,3,stapler,0.450654325046,right,1,correct,arm2,1,arm21,lion
35,3,rose,0.216986038693,right,1,correct,arm2,2,arm22,lion
36,3,lion,0.133762858837,left,1,correct,arm2,3,arm23,lion
37,4,lion,0.466998188553,space,1,correct,target,NaN,targetNaN,lion
38,4,coffeepot,0.333634689421,left,1,correct,path,1,path1,lion
39,4,mosquito,0.266952788923,left,1,correct,path,2,path2,lion
40,4,canoe,0.183868464257,right,1,correct,path,3,path3,lion
41,4,goose,0.316887240187,left,1,correct,decision,1,decision1,lion
42,4,sailor,0.316930406058,right,1,correct,arm1,1,arm11,lion
43,4,cooker,0.234320604039,right,1,correct,arm1,2,arm12,lion
44,4,tooth,0.400239615818,right,1,correct,arm1,3,arm13,lion
45,4,crutches,0.517220311624,right,1,correct,decision,2,decision2,lion
46,4,stapler,0.351150370232,right,1,correct,arm2,1,arm21,lion
47,4,rose,0.216967021581,right,1,correct,arm2,2,arm22,lion
48,4,lion,0.217003244674,left,1,correct,arm2,3,arm23,lion
49,5,bolt,0.600691921602,space,1,correct,target,NaN,targetNaN,bolt
50,5,coffeepot,0.367064989987,left,1,correct,path,1,path1,bolt
51,5,mosquito,0.233602782915,left,1,correct,path,2,path2,bolt
52,5,canoe,0.233564144932,right,1,correct,path,3,path3,bolt
53,5,domino,1.88373621975,left,1,correct,decision,1,decision1,bolt
54,5,ambulance,0.267005010566,right,1,correct,arm1,1,arm11,bolt
55,5,trunk,0.40031840108,left,1,correct,arm1,2,arm12,bolt
56,5,peach,0.200247343397,left,1,correct,arm1,3,arm13,bolt
57,5,garlic,0.6170270312,left,1,correct,decision,2,decision2,bolt
58,5,mug,0.216964908584,right,1,correct,arm2,1,arm21,bolt
59,5,branch,0.183585320337,left,1,correct,arm2,2,arm22,bolt
60,5,bolt,0.216926572466,right,1,correct,arm2,3,arm23,bolt
61,6,lion,0.5002778614,space,1,correct,target,NaN,targetNaN,lion
62,6,coffeepot,0.383576989028,left,1,correct,path,1,path1,lion
63,6,mosquito,0.216905140434,left,1,correct,path,2,path2,lion
64,6,canoe,0.200263945677,right,1,correct,path,3,path3,lion
65,6,goose,0.233959882316,right,1,correct,decision,1,decision1,lion
66,6,sailor,0.816710199782,right,1,correct,arm1,1,arm11,lion
67,6,cooker,0.0844375593879,right,1,correct,arm1,2,arm12,lion
68,6,tooth,0.216924459441,right,1,correct,arm1,3,arm13,lion
69,6,crutches,0.334048236487,right,1,correct,decision,2,decision2,lion
70,6,stapler,0.400279763096,right,1,correct,arm2,1,arm21,lion
71,6,rose,0.150313797727,right,1,correct,arm2,2,arm22,lion
72,6,lion,0.166725881369,left,1,correct,arm2,3,arm23,lion
73,7,bolt,0.317412777018,space,1,correct,target,NaN,targetNaN,bolt
74,7,coffeepot,0.216908762755,left,1,correct,path,1,path1,bolt
75,7,mosquito,0.16692812703,left,1,correct,path,2,path2,bolt
76,7,canoe,0.150584867253,right,1,correct,path,3,path3,bolt
77,7,domino,0.283603945049,right,1,correct,decision,1,decision1,bolt
78,7,ambulance,0.300203785126,right,1,correct,arm1,1,arm11,bolt
79,7,trunk,0.250275371043,left,1,correct,arm1,2,arm12,bolt
80,7,peach,0.200303791062,left,1,correct,arm1,3,arm13,bolt
81,7,garlic,0.450300244236,left,1,correct,decision,2,decision2,bolt
82,7,mug,0.26687339996,right,1,correct,arm2,1,arm21,bolt
83,7,branch,0.316976892384,left,1,correct,arm2,2,arm22,bolt
84,7,bolt,0.250678654906,right,1,correct,arm2,3,arm23,bolt
85,8,bolt,0.600271431787,space,1,correct,target,NaN,targetNaN,bolt
86,8,coffeepot,0.383579403919,left,1,correct,path,1,path1,bolt
87,8,mosquito,0.216904536734,left,1,correct,path,2,path2,bolt
88,8,canoe,0.533668618387,right,1,correct,path,3,path3,bolt
89,8,domino,0.333562545071,left,1,correct,decision,1,decision1,bolt
90,8,ambulance,0.30041689772,right,1,correct,arm1,1,arm11,bolt
91,8,trunk,0.183615808142,left,1,correct,arm1,2,arm12,bolt
92,8,peach,0.233563541202,left,1,correct,arm1,3,arm13,bolt
93,8,garlic,0.366921606881,right,1,correct,decision,2,decision2,bolt
94,8,mug,0.367019409256,right,1,correct,arm2,1,arm21,bolt
95,8,branch,0.150265802076,left,1,correct,arm2,2,arm22,bolt
96,8,bolt,0.183566906926,right,1,correct,arm2,3,arm23,bolt
97,9,lion,0.283630206803,space,1,correct,target,NaN,targetNaN,lion
98,9,coffeepot,0.616847123107,left,1,correct,path,1,path1,lion
99,9,mosquito,0.23358829366,left,1,correct,path,2,path2,lion
100,9,canoe,0.216930798488,right,1,correct,path,3,path3,lion
101,9,goose,0.433663275471,left,1,correct,decision,1,decision1,lion
102,9,sailor,0.250353854441,right,1,correct,arm1,1,arm11,lion
103,9,cooker,0.166885866725,right,1,correct,arm1,2,arm12,lion
104,9,tooth,0.183617921139,right,1,correct,arm1,3,arm13,lion
105,9,crutches,0.416944804747,right,1,correct,decision,2,decision2,lion
106,9,stapler,0.2337986895,right,1,correct,arm2,1,arm21,lion
107,9,rose,0.33354533909,right,1,correct,arm2,2,arm22,lion
108,9,lion,0.216942269122,left,1,correct,arm2,3,arm23,lion
109,10,lion,1.01698984214,space,1,correct,target,NaN,targetNaN,lion
110,10,coffeepot,0.250243977702,left,1,correct,path,1,path1,lion
111,10,mosquito,0.183513477881,left,1,correct,path,2,path2,lion
112,10,canoe,0.117207995761,right,1,correct,path,3,path3,lion
113,10,goose,0.250319744344,left,1,correct,decision,1,decision1,lion
114,10,sailor,0.216905140463,right,1,correct,arm1,1,arm11,lion
115,10,cooker,0.150234408735,right,1,correct,arm1,2,arm12,lion
116,10,tooth,0.183698517532,right,1,correct,arm1,3,arm13,lion
117,10,crutches,0.250292577024,right,1,correct,decision,2,decision2,lion
118,10,stapler,0.200454418809,right,1,correct,arm2,1,arm21,lion
119,10,rose,0.416896205425,right,1,correct,arm2,2,arm22,lion
120,10,lion,0.250270239427,left,1,correct,arm2,3,arm23,lion
121,11,lion,0.400312665734,space,1,correct,target,NaN,targetNaN,lion
122,11,coffeepot,0.266921697446,left,1,correct,path,1,path1,lion
123,11,mosquito,0.183613091387,left,1,correct,path,2,path2,lion
124,11,canoe,0.200279038632,right,1,correct,path,3,path3,lion
125,11,goose,0.316992589069,right,1,correct,decision,1,decision1,lion
126,11,sailor,0.21693623194,right,1,correct,arm1,1,arm11,lion
127,11,cooker,0.150346398499,right,1,correct,arm1,2,arm12,lion
128,11,tooth,0.216907555325,right,1,correct,arm1,3,arm13,lion
129,11,crutches,0.783548553911,left,1,correct,decision,2,decision2,lion
130,11,stapler,0.383587554097,right,1,correct,arm2,1,arm21,lion
131,11,rose,0.150335531565,right,1,correct,arm2,2,arm22,lion
132,11,lion,0.233551768702,left,1,correct,arm2,3,arm23,lion
133,12,lion,0.516746694571,space,1,correct,target,NaN,targetNaN,lion
134,12,coffeepot,0.167079056642,left,1,correct,path,1,path1,lion
135,12,mosquito,0.71689895232,left,1,correct,path,2,path2,lion
136,12,canoe,0.114358445106,right,1,correct,path,3,path3,lion
137,12,goose,0.716965059488,left,1,correct,decision,1,decision1,lion
138,12,sailor,0.266957618674,right,1,correct,arm1,1,arm11,lion
139,12,cooker,0.217048523569,right,1,correct,arm1,2,arm12,lion
140,12,tooth,0.366773997725,right,1,correct,arm1,3,arm13,lion
141,12,crutches,0.450216025522,left,1,correct,decision,2,decision2,lion
142,12,stapler,0.233622705593,right,1,correct,arm2,1,arm21,lion
143,12,rose,0.233589802956,right,1,correct,arm2,2,arm22,lion
144,12,lion,0.216956456512,left,1,correct,arm2,3,arm23,lion
145,13,bolt,1.15030081777,space,1,correct,target,NaN,targetNaN,bolt
146,13,coffeepot,0.166910619213,left,1,correct,path,1,path1,bolt
147,13,mosquito,0.183618223004,left,1,correct,path,2,path2,bolt
148,13,canoe,0.183648408914,right,1,correct,path,3,path3,bolt
149,13,domino,0.267026744405,right,1,correct,decision,1,decision1,bolt
150,13,ambulance,0.633678187325,right,1,correct,arm1,1,arm11,bolt
151,13,trunk,0.183661992574,left,1,correct,arm1,2,arm12,bolt
152,13,peach,0.233733186091,left,1,correct,arm1,3,arm13,bolt
153,13,garlic,0.783620396367,right,1,correct,decision,2,decision2,bolt
154,13,mug,0.267421878088,right,1,correct,arm2,1,arm21,bolt
155,13,branch,0.151064823352,left,1,correct,arm2,2,arm22,bolt
156,13,bolt,0.183699724992,right,1,correct,arm2,3,arm23,bolt
157,14,lion,0.31701100248,space,1,correct,target,NaN,targetNaN,lion
158,14,coffeepot,0.266963052127,left,1,correct,path,1,path1,lion
159,14,mosquito,0.317214455543,left,1,correct,path,2,path2,lion
160,14,canoe,0.233610027528,right,1,correct,path,3,path3,lion
161,14,goose,1.50105786551,left,1,correct,decision,1,decision1,lion
162,14,sailor,0.316984438861,right,1,correct,arm1,1,arm11,lion
163,14,cooker,0.266861929325,right,1,correct,arm1,2,arm12,lion
164,14,tooth,0.217718349071,right,1,correct,arm1,3,arm13,lion
165,14,crutches,0.417105997563,right,1,correct,decision,2,decision2,lion
166,14,stapler,0.333696872403,right,1,correct,arm2,1,arm21,lion
167,14,rose,0.200202366395,right,1,correct,arm2,2,arm22,lion
168,14,lion,0.217167154216,left,1,correct,arm2,3,arm23,lion
169,15,lion,0.483671682276,space,1,correct,target,NaN,targetNaN,lion
170,15,coffeepot,0.300456441269,left,1,correct,path,1,path1,lion
171,15,mosquito,0.233733789792,left,1,correct,path,2,path2,lion
172,15,canoe,0.216998716787,right,1,correct,path,3,path3,lion
173,15,goose,0.467015394504,left,1,correct,decision,1,decision1,lion
174,15,sailor,0.233654702664,right,1,correct,arm1,1,arm11,lion
175,15,cooker,0.150253124011,right,1,correct,arm1,2,arm12,lion
176,15,tooth,0.201020706649,right,1,correct,arm1,3,arm13,lion
177,15,crutches,0.750309028313,right,1,correct,decision,2,decision2,lion
178,15,stapler,0.40023086188,right,1,correct,arm2,1,arm21,lion
179,15,rose,0.183633617795,right,1,correct,arm2,2,arm22,lion
180,15,lion,0.250226167991,left,1,correct,arm2,3,arm23,lion
181,16,bolt,2.96686552142,space,1,correct,target,NaN,targetNaN,bolt
182,16,coffeepot,0.250300123502,left,1,correct,path,1,path1,bolt
183,16,mosquito,0.166968274279,left,1,correct,path,2,path2,bolt
184,16,canoe,0.200246437831,right,1,correct,path,3,path3,bolt
185,16,domino,0.316953347385,right,1,correct,decision,1,decision1,bolt
186,16,ambulance,0.250291671429,right,1,correct,arm1,1,arm11,bolt
187,16,trunk,0.450277302909,left,1,correct,arm1,2,arm12,bolt
188,16,peach,0.216911781346,left,1,correct,arm1,3,arm13,bolt
189,16,garlic,0.733672965172,right,1,correct,decision,2,decision2,bolt
190,16,mug,0.266892115236,right,1,correct,arm2,1,arm21,bolt
191,16,branch,1.06696172393,left,1,correct,arm2,2,arm22,bolt
192,16,bolt,0.183578075725,right,1,correct,arm2,3,arm23,bolt
193,17,bolt,0.450265832274,space,1,correct,target,NaN,targetNaN,bolt
194,17,coffeepot,0.216906046029,left,1,correct,path,1,path1,bolt
195,17,mosquito,0.167271944636,left,1,correct,path,2,path2,bolt
196,17,canoe,0.200234967197,right,1,correct,path,3,path3,bolt
197,17,domino,0.38366573563,right,1,correct,decision,1,decision1,bolt
198,17,ambulance,0.566915992298,right,1,correct,arm1,1,arm11,bolt
199,17,trunk,0.233574710001,left,1,correct,arm1,2,arm12,bolt
200,17,peach,0.250398529577,left,1,correct,arm1,3,arm13,bolt
201,17,garlic,0.716815337335,right,1,correct,decision,2,decision2,bolt
202,17,mug,0.550434481003,right,1,correct,arm2,1,arm21,bolt
203,17,branch,0.200302583631,left,1,correct,arm2,2,arm22,bolt
204,17,bolt,0.184097877238,right,1,correct,arm2,3,arm23,bolt
205,18,bolt,1.05075641384,space,1,correct,target,NaN,targetNaN,bolt
206,18,coffeepot,0.966899027815,left,1,correct,path,1,path1,bolt
207,18,mosquito,0.233390575886,left,1,correct,path,2,path2,bolt
208,18,canoe,0.216919629689,right,1,correct,path,3,path3,bolt
209,18,domino,0.450309601874,left,1,correct,decision,1,decision1,bolt
210,18,ambulance,0.283574362868,right,1,correct,arm1,1,arm11,bolt
211,18,trunk,0.216895782825,left,1,correct,arm1,2,arm12,bolt
212,18,peach,0.266915358399,left,1,correct,arm1,3,arm13,bolt
213,18,garlic,0.383630418102,right,1,correct,decision,2,decision2,bolt
214,18,mug,0.283437016944,right,1,correct,arm2,1,arm21,bolt
215,18,branch,0.1835641902,left,1,correct,arm2,2,arm22,bolt
216,18,bolt,0.300249969587,right,1,correct,arm2,3,arm23,bolt
217,19,lion,0.816990626976,space,1,correct,target,NaN,targetNaN,lion
218,19,coffeepot,0.183527665242,left,1,correct,path,1,path1,lion
219,19,mosquito,0.216962795559,left,1,correct,path,2,path2,lion
220,19,canoe,0.200595990784,right,1,correct,path,3,path3,lion
221,19,goose,0.350052810274,left,1,correct,decision,1,decision1,lion
222,19,sailor,0.216951928625,right,1,correct,arm1,1,arm11,lion
223,19,cooker,0.133608005068,right,1,correct,arm1,2,arm12,lion
224,19,tooth,0.366966282047,right,1,correct,arm1,3,arm13,lion
225,19,crutches,0.4003337959,right,1,correct,decision,2,decision2,lion
226,19,stapler,0.266878833412,right,1,correct,arm2,1,arm21,lion
227,19,rose,0.283613000851,right,1,correct,arm2,2,arm22,lion
228,19,lion,0.216740325326,left,1,correct,arm2,3,arm23,lion
229,20,bolt,0.850135670597,space,1,correct,target,NaN,targetNaN,bolt
230,20,coffeepot,0.433597772033,left,1,correct,path,1,path1,bolt
231,20,mosquito,0.350296410616,left,1,correct,path,2,path2,bolt
232,20,canoe,0.317725201283,right,1,correct,path,3,path3,bolt
233,20,domino,0.367005523731,left,1,correct,decision,1,decision1,bolt
234,20,ambulance,0.233651382208,right,1,correct,arm1,1,arm11,bolt
235,20,trunk,0.233617875841,left,1,correct,arm1,2,arm12,bolt
236,20,peach,0.250261183653,left,1,correct,arm1,3,arm13,bolt
237,20,garlic,0.567008361191,left,1,correct,decision,2,decision2,bolt
238,20,mug,0.333598466299,right,1,correct,arm2,1,arm21,bolt
239,20,branch,0.266947053606,left,1,correct,arm2,2,arm22,bolt
240,20,bolt,0.233607008937,right,1,correct,arm2,3,arm23,bolt
