pic_index,trial_num,pic_name,rt,resp,feedback_code,feedback,segment,segment_index,pic_type,trial_target
1,1,arc,2.56692444434,space,1,correct,target,NaN,targetNaN,arc
2,1,trophy,1.35024750943,left,1,correct,path,1,path1,arc
3,1,astronaut,0.216901820007,right,1,correct,path,2,path2,arc
4,1,robot,0.21689548096,right,1,correct,path,3,path3,arc
5,1,watch,0.733597802231,left,1,correct,decision,1,decision1,arc
6,1,clover,1.00029733131,left,1,correct,arm1,1,arm11,arc
7,1,radio,0.400257425528,right,1,correct,arm1,2,arm12,arc
8,1,wing,0.566896673321,left,1,correct,arm1,3,arm13,arc
9,1,holly,1.71723643091,left,1,correct,decision,2,decision2,arc
10,1,match,0.550302870397,right,1,correct,arm2,1,arm21,arc
11,1,baby,0.400235993526,left,1,correct,arm2,2,arm22,arc
12,1,arc,1.95025149398,left,1,correct,arm2,3,arm23,arc
13,2,beaver,1.76793820821,space,1,correct,target,NaN,targetNaN,beaver
14,2,trophy,0.716919780622,left,1,correct,path,1,path1,beaver
15,2,astronaut,0.233584369504,right,1,correct,path,2,path2,beaver
16,2,robot,0.283603643184,right,1,correct,path,3,path3,beaver
17,2,pigeon,0.883586497599,left,1,correct,decision,1,decision1,beaver
18,2,bus,0.600265394576,right,1,correct,arm1,1,arm11,beaver
19,2,deer,0.316921048448,left,1,correct,arm1,2,arm12,beaver
20,2,fist,0.266948562872,right,1,correct,arm1,3,arm13,beaver
21,2,stepladder,0.717043542885,right,1,correct,decision,2,decision2,beaver
22,2,calc,0.584304892254,right,1,correct,arm2,1,arm21,beaver
23,2,tongue,1.05095050929,right,1,correct,arm2,2,arm22,beaver
24,2,beaver,0.333635896852,left,1,correct,arm2,3,arm23,beaver
25,3,beaver,1.28365888342,space,1,correct,target,NaN,targetNaN,beaver
26,3,trophy,0.633611778321,left,1,correct,path,1,path1,beaver
27,3,astronaut,0.31690806846,right,1,correct,path,2,path2,beaver
28,3,robot,0.383593591279,right,1,correct,path,3,path3,beaver
29,3,pigeon,0.417463096965,right,1,correct,decision,1,decision1,beaver
30,3,bus,0.650263840012,right,1,correct,arm1,1,arm11,beaver
31,3,deer,0.350303051528,left,1,correct,arm1,2,arm12,beaver
32,3,fist,0.233618177735,right,1,correct,arm1,3,arm13,beaver
33,3,stepladder,0.483753787936,left,1,correct,decision,2,decision2,beaver
34,3,calc,0.450308092579,right,1,correct,arm2,1,arm21,beaver
35,3,tongue,0.300280759227,right,1,correct,arm2,2,arm22,beaver
36,3,beaver,0.216960682563,left,1,correct,arm2,3,arm23,beaver
37,4,beaver,0.617015560536,space,1,correct,target,NaN,targetNaN,beaver
38,4,trophy,0.401031694317,left,1,correct,path,1,path1,beaver
39,4,astronaut,0.283549912274,right,1,correct,path,2,path2,beaver
40,4,robot,0.250240355381,right,1,correct,path,3,path3,beaver
41,4,pigeon,0.500474673579,right,1,correct,decision,1,decision1,beaver
42,4,bus,0.633657962782,right,1,correct,arm1,1,arm11,beaver
43,4,deer,0.250268730131,left,1,correct,arm1,2,arm12,beaver
44,4,fist,0.200284472085,right,1,correct,arm1,3,arm13,beaver
45,4,stepladder,0.550266043603,left,1,correct,decision,2,decision2,beaver
46,4,calc,0.483376765857,right,1,correct,arm2,1,arm21,beaver
47,4,tongue,0.383618645603,right,1,correct,arm2,2,arm22,beaver
48,4,beaver,0.216911479481,left,1,correct,arm2,3,arm23,beaver
49,5,arc,0.883604005445,space,1,correct,target,NaN,targetNaN,arc
50,5,trophy,0.650235767098,left,1,correct,path,1,path1,arc
51,5,astronaut,0.250250014855,right,1,correct,path,2,path2,arc
52,5,robot,0.600533143675,right,1,correct,path,3,path3,arc
53,5,watch,0.667106978595,left,1,correct,decision,1,decision1,arc
54,5,clover,1.45023534453,left,1,correct,arm1,1,arm11,arc
55,5,radio,0.383601137757,right,1,correct,arm1,2,arm12,arc
56,5,wing,0.283574061003,left,1,correct,arm1,3,arm13,arc
57,5,holly,1.61691473957,left,1,correct,decision,2,decision2,arc
58,5,match,0.367045369145,right,1,correct,arm2,1,arm21,arc
59,5,baby,0.516976711282,left,1,correct,arm2,2,arm22,arc
60,5,arc,0.333563148772,left,1,correct,arm2,3,arm23,arc
61,6,arc,1.41789234072,space,1,correct,target,NaN,targetNaN,arc
62,6,trophy,0.300221896701,left,1,correct,path,1,path1,arc
63,6,astronaut,0.200319487747,right,1,correct,path,2,path2,arc
64,6,robot,0.333579751052,right,1,correct,path,3,path3,arc
65,6,watch,0.533986476104,left,1,correct,decision,1,decision1,arc
66,6,clover,1.01702214108,left,1,correct,arm1,1,arm11,arc
67,6,radio,0.266932262486,right,1,correct,arm1,2,arm12,arc
68,6,wing,0.233578332321,left,1,correct,arm1,3,arm13,arc
69,6,holly,0.700300923403,right,1,correct,decision,2,decision2,arc
70,6,match,0.483563314803,right,1,correct,arm2,1,arm21,arc
71,6,baby,0.216972153168,left,1,correct,arm2,2,arm22,arc
72,6,arc,0.283608472964,left,1,correct,arm2,3,arm23,arc
73,7,beaver,0.867015937867,space,1,correct,target,NaN,targetNaN,beaver
74,7,trophy,0.350247509428,left,1,correct,path,1,path1,beaver
75,7,astronaut,0.266900869145,right,1,correct,path,2,path2,beaver
76,7,robot,0.26691535837,right,1,correct,path,3,path3,beaver
77,7,pigeon,1.26717737215,right,1,correct,decision,1,decision1,beaver
78,7,bus,0.966937967634,right,1,correct,arm1,1,arm11,beaver
79,7,deer,0.200270888425,left,1,correct,arm1,2,arm12,beaver
80,7,fist,0.417072189332,right,1,correct,arm1,3,arm13,beaver
81,7,stepladder,1.1169710363,left,1,correct,decision,2,decision2,beaver
82,7,calc,1.45028001966,right,1,correct,arm2,1,arm21,beaver
83,7,tongue,0.350246000133,right,1,correct,arm2,2,arm22,beaver
84,7,beaver,0.266933469917,left,1,correct,arm2,3,arm23,beaver
85,8,arc,1.73364609969,space,1,correct,target,NaN,targetNaN,arc
86,8,trophy,0.41689529983,left,1,correct,path,1,path1,arc
87,8,astronaut,0.333385051868,right,1,correct,path,2,path2,arc
88,8,robot,0.316921652149,right,1,correct,path,3,path3,arc
89,8,watch,0.583561413107,left,1,correct,decision,1,decision1,arc
90,8,clover,0.883606722171,left,1,correct,arm1,1,arm11,arc
91,8,radio,0.283564401499,right,1,correct,arm1,2,arm12,arc
92,8,wing,0.233584369504,left,1,correct,arm1,3,arm13,arc
93,8,holly,1.43362825984,right,1,correct,decision,2,decision2,arc
94,8,match,0.650377339043,right,1,correct,arm2,1,arm21,arc
95,8,baby,0.266907510028,left,1,correct,arm2,2,arm22,arc
96,8,arc,0.416919448588,left,1,correct,arm2,3,arm23,arc
97,9,arc,1.76699037041,space,1,correct,target,NaN,targetNaN,arc
98,9,trophy,0.350231510907,left,1,correct,path,1,path1,arc
99,9,astronaut,0.216953739786,right,1,correct,path,2,path2,arc
100,9,robot,0.483738996845,right,1,correct,path,3,path3,arc
101,9,watch,1.75028065356,left,1,correct,decision,1,decision1,arc
102,9,clover,1.05035101692,left,1,correct,arm1,1,arm11,arc
103,9,radio,0.283404416143,right,1,correct,arm1,2,arm12,arc
104,9,wing,0.300229745015,left,1,correct,arm1,3,arm13,arc
105,9,holly,0.933649239043,right,1,correct,decision,2,decision2,arc
106,9,match,0.650253878674,right,1,correct,arm2,1,arm21,arc
107,9,baby,0.233616064681,left,1,correct,arm2,2,arm22,arc
108,9,arc,0.383595704305,left,1,correct,arm2,3,arm23,arc
109,10,beaver,2.03372793371,space,1,correct,target,NaN,targetNaN,beaver
110,10,trophy,0.183674066939,left,1,correct,path,1,path1,beaver
111,10,astronaut,0.25028171009,right,1,correct,path,2,path2,beaver
112,10,robot,0.216917818529,right,1,correct,path,3,path3,beaver
113,10,pigeon,0.63363411586,left,1,correct,decision,1,decision1,beaver
114,10,bus,0.466969813773,right,1,correct,arm1,1,arm11,beaver
115,10,deer,0.266884870594,left,1,correct,arm1,2,arm12,beaver
116,10,fist,0.183681009687,right,1,correct,arm1,3,arm13,beaver
117,10,stepladder,0.966918648657,left,1,correct,decision,2,decision2,beaver
118,10,calc,0.450268247165,right,1,correct,arm2,1,arm21,beaver
119,10,tongue,0.233652589668,right,1,correct,arm2,2,arm22,beaver
120,10,beaver,0.233729865606,left,1,correct,arm2,3,arm23,beaver
121,11,beaver,0.816988815815,space,1,correct,target,NaN,targetNaN,beaver
122,11,trophy,0.21690966835,left,1,correct,path,1,path1,beaver
123,11,astronaut,0.150264594646,right,1,correct,path,2,path2,beaver
124,11,robot,0.233396914933,right,1,correct,path,3,path3,beaver
125,11,pigeon,0.400420127611,left,1,correct,decision,1,decision1,beaver
126,11,bus,0.383607476804,right,1,correct,arm1,1,arm11,beaver
127,11,deer,0.133609816199,left,1,correct,arm1,2,arm12,beaver
128,11,fist,0.183656860987,right,1,correct,arm1,3,arm13,beaver
129,11,stepladder,0.550506927219,right,1,correct,decision,2,decision2,beaver
130,11,calc,0.500282389257,right,1,correct,arm2,1,arm21,beaver
131,11,tongue,0.166898242955,right,1,correct,arm2,2,arm22,beaver
132,11,beaver,0.266956109379,left,1,correct,arm2,3,arm23,beaver
133,12,arc,1.40042525923,space,1,correct,target,NaN,targetNaN,arc
134,12,trophy,0.183639353141,left,1,correct,path,1,path1,arc
135,12,astronaut,0.200271492155,right,1,correct,path,2,path2,arc
136,12,robot,0.20041427153,right,1,correct,path,3,path3,arc
137,12,watch,0.450461135188,right,1,correct,decision,1,decision1,arc
138,12,clover,0.416921561584,left,1,correct,arm1,1,arm11,arc
139,12,radio,0.283598209731,right,1,correct,arm1,2,arm12,arc
140,12,wing,0.250392492395,left,1,correct,arm1,3,arm13,arc
141,12,holly,0.550455913006,right,1,correct,decision,2,decision2,arc
142,12,match,0.4502679453,right,1,correct,arm2,1,arm21,arc
143,12,baby,0.400264368276,left,1,correct,arm2,2,arm22,arc
144,12,arc,0.216927779897,left,1,correct,arm2,3,arm23,arc
145,13,arc,1.68383269393,space,1,correct,target,NaN,targetNaN,arc
146,13,trophy,0.150975774886,left,1,correct,path,1,path1,arc
147,13,astronaut,0.216903631139,right,1,correct,path,2,path2,arc
148,13,robot,0.250230695878,right,1,correct,path,3,path3,arc
149,13,watch,0.450252248615,right,1,correct,decision,1,decision1,arc
150,13,clover,0.433601998084,left,1,correct,arm1,1,arm11,arc
151,13,radio,0.283597304166,right,1,correct,arm1,2,arm12,arc
152,13,wing,0.233688510896,left,1,correct,arm1,3,arm13,arc
153,13,holly,0.73359236875,right,1,correct,decision,2,decision2,arc
154,13,match,1.53365201614,right,1,correct,arm2,1,arm21,arc
155,13,baby,0.366914664104,left,1,correct,arm2,2,arm22,arc
156,13,arc,0.333600881189,left,1,correct,arm2,3,arm23,arc
157,14,arc,0.850376554241,space,1,correct,target,NaN,targetNaN,arc
158,14,trophy,0.683589697292,left,1,correct,path,1,path1,arc
159,14,astronaut,0.183587735228,right,1,correct,path,2,path2,arc
160,14,robot,0.400246558565,right,1,correct,path,3,path3,arc
161,14,watch,0.466970417503,left,1,correct,decision,1,decision1,arc
162,14,clover,0.950212252268,left,1,correct,arm1,1,arm11,arc
163,14,radio,0.250257259497,right,1,correct,arm1,2,arm12,arc
164,14,wing,0.216912385076,left,1,correct,arm1,3,arm13,arc
165,14,holly,0.91703189112,left,1,correct,decision,2,decision2,arc
166,14,match,0.450255267206,right,1,correct,arm2,1,arm21,arc
167,14,baby,0.383613513986,left,1,correct,arm2,2,arm22,arc
168,14,arc,0.400225428428,left,1,correct,arm2,3,arm23,arc
169,15,arc,0.866976696154,space,1,correct,target,NaN,targetNaN,arc
170,15,trophy,0.483546410687,left,1,correct,path,1,path1,arc
171,15,astronaut,0.433581169782,right,1,correct,path,2,path2,arc
172,15,robot,0.300256006769,right,1,correct,path,3,path3,arc
173,15,watch,0.466931477655,left,1,correct,decision,1,decision1,arc
174,15,clover,0.966918044956,left,1,correct,arm1,1,arm11,arc
175,15,radio,0.333580656617,right,1,correct,arm1,2,arm12,arc
176,15,wing,0.300452517084,left,1,correct,arm1,3,arm13,arc
177,15,holly,1.75026133459,right,1,correct,decision,2,decision2,arc
178,15,match,2.41689137567,right,1,correct,arm2,1,arm21,arc
179,15,baby,0.200253984309,left,1,correct,arm2,2,arm22,arc
180,15,arc,0.200238589488,left,1,correct,arm2,3,arm23,arc
181,16,beaver,1.53359345545,space,1,correct,target,NaN,targetNaN,beaver
182,16,trophy,0.233746769722,left,1,correct,path,1,path1,beaver
183,16,astronaut,0.150254331471,right,1,correct,path,2,path2,beaver
184,16,robot,0.216890349344,right,1,correct,path,3,path3,beaver
185,16,pigeon,0.450232024072,left,1,correct,decision,1,decision1,beaver
186,16,bus,0.416940578725,right,1,correct,arm1,1,arm11,beaver
187,16,deer,0.350393307424,left,1,correct,arm1,2,arm12,beaver
188,16,fist,0.383605363779,right,1,correct,arm1,3,arm13,beaver
189,16,stepladder,0.516950147663,right,1,correct,decision,2,decision2,beaver
190,16,calc,0.500255825667,right,1,correct,arm2,1,arm21,beaver
191,16,tongue,0.400350096257,right,1,correct,arm2,2,arm22,beaver
192,16,beaver,0.21692083712,left,1,correct,arm2,3,arm23,beaver
193,17,arc,0.783761062776,space,1,correct,target,NaN,targetNaN,arc
194,17,trophy,0.200252475013,left,1,correct,path,1,path1,arc
195,17,astronaut,0.200320091477,right,1,correct,path,2,path2,arc
196,17,robot,0.183585320337,right,1,correct,path,3,path3,arc
197,17,watch,0.766983125766,right,1,correct,decision,1,decision1,arc
198,17,clover,0.416899223987,left,1,correct,arm1,1,arm11,arc
199,17,radio,0.283669750381,right,1,correct,arm1,2,arm12,arc
200,17,wing,0.216941665421,left,1,correct,arm1,3,arm13,arc
201,17,holly,3.60028652471,right,1,correct,decision,2,decision2,arc
202,17,match,0.533572929009,right,1,correct,arm2,1,arm21,arc
203,17,baby,0.367066499282,left,1,correct,arm2,2,arm22,arc
204,17,arc,0.233562635636,left,1,correct,arm2,3,arm23,arc
205,18,beaver,4.6840313173,space,1,correct,target,NaN,targetNaN,beaver
206,18,trophy,0.283565307094,left,1,correct,path,1,path1,beaver
207,18,astronaut,0.200242513674,right,1,correct,path,2,path2,beaver
208,18,robot,0.350239661086,right,1,correct,path,3,path3,beaver
209,18,pigeon,0.500090104964,right,1,correct,decision,1,decision1,beaver
210,18,bus,0.76692426324,right,1,correct,arm1,1,arm11,beaver
211,18,deer,0.133644530026,left,1,correct,arm1,2,arm12,beaver
212,18,fist,0.216916007368,right,1,correct,arm1,3,arm13,beaver
213,18,stepladder,0.383894243045,right,1,correct,decision,2,decision2,beaver
214,18,calc,0.400321721536,right,1,correct,arm2,1,arm21,beaver
215,18,tongue,0.183553021401,right,1,correct,arm2,2,arm22,beaver
216,18,beaver,0.216905140463,left,1,correct,arm2,3,arm23,beaver
217,19,beaver,0.767047421774,space,1,correct,target,NaN,targetNaN,beaver
218,19,trophy,0.200436910993,left,1,correct,path,1,path1,beaver
219,19,astronaut,0.150318325585,right,1,correct,path,2,path2,beaver
220,19,robot,0.183566906955,right,1,correct,path,3,path3,beaver
221,19,pigeon,0.483691001253,left,1,correct,decision,1,decision1,beaver
222,19,bus,0.367033596645,right,1,correct,arm1,1,arm11,beaver
223,19,deer,0.200213233329,left,1,correct,arm1,2,arm12,beaver
224,19,fist,0.216947702604,right,1,correct,arm1,3,arm13,beaver
225,19,stepladder,0.833450102509,left,1,correct,decision,2,decision2,beaver
226,19,calc,0.483599839761,right,1,correct,arm2,1,arm21,beaver
227,19,tongue,0.466922120046,right,1,correct,arm2,2,arm22,beaver
228,19,beaver,0.283586437232,left,1,correct,arm2,3,arm23,beaver
229,20,beaver,0.716982567334,space,1,correct,target,NaN,targetNaN,beaver
230,20,trophy,0.166908204323,left,1,correct,path,1,path1,beaver
231,20,astronaut,0.166919071227,right,1,correct,path,2,path2,beaver
232,20,robot,0.15093049602,right,1,correct,path,3,path3,beaver
233,20,pigeon,0.350418663584,left,1,correct,decision,1,decision1,beaver
234,20,bus,0.28359337998,right,1,correct,arm1,1,arm11,beaver
235,20,deer,0.133566046658,left,1,correct,arm1,2,arm12,beaver
236,20,fist,0.267004105001,right,1,correct,arm1,3,arm13,beaver
237,20,stepladder,0.416971972067,left,1,correct,decision,2,decision2,beaver
238,20,calc,0.366742604354,right,1,correct,arm2,1,arm21,beaver
239,20,tongue,0.383615627012,right,1,correct,arm2,2,arm22,beaver
240,20,beaver,0.166908204323,left,1,correct,arm2,3,arm23,beaver
