pic_index,trial_num,pic_name,rt,resp,feedback_code,feedback,segment,segment_index,pic_type,trial_target
1,1,lion,2.45027549181,space,1,correct,target,NaN,targetNaN,lion
2,1,coffeepot,6.15015049189,left,1,correct,path,1,path1,lion
3,1,mosquito,3.48354158096,left,1,correct,path,2,path2,lion
4,1,canoe,0.114202685771,right,1,correct,path,3,path3,lion
5,1,goose,5.38357517787,left,1,correct,decision,1,decision1,lion
6,1,sailor,1.90023554073,right,1,correct,arm1,1,arm11,lion
7,1,cooker,1.95022764709,right,1,correct,arm1,2,arm12,lion
8,1,tooth,1.06689048521,right,1,correct,arm1,3,arm13,lion
9,1,crutches,6.73350090542,left,1,correct,decision,2,decision2,lion
10,1,stapler,2.36670336267,right,1,correct,arm2,1,arm21,lion
11,1,rose,0.433650597377,right,1,correct,arm2,2,arm22,lion
12,1,lion,2.53355451563,left,1,correct,arm2,3,arm23,lion
13,2,lion,3.65025599167,space,0,wrong,target,NaN,targetNaN,lion
14,2,coffeepot,4.80017978733,left,0,wrong,path,1,path1,lion
15,2,mosquito,0.550374109182,left,0,wrong,path,2,path2,lion
16,2,canoe,0.783658732515,right,0,wrong,path,3,path3,lion
17,2,domino,3.98357221967,left,0,wrong,decision,1,decision1,lion
18,2,ambulance,7.01681778239,right,0,wrong,arm1,1,arm11,lion
19,2,trunk,1.81691304917,left,0,wrong,arm1,2,arm12,lion
20,2,peach,4.35034078392,left,0,wrong,arm1,3,arm13,lion
21,2,crutches,3.75021756499,right,0,wrong,decision,2,decision2,lion
22,2,stapler,2.30023246174,right,0,wrong,arm2,1,arm21,lion
23,2,rose,0.483600443491,right,0,wrong,arm2,2,arm22,lion
24,2,lion,0.683690216392,left,0,wrong,arm2,3,arm23,lion
25,3,bolt,2.98359153865,space,1,correct,target,NaN,targetNaN,bolt
26,3,coffeepot,2.40023508793,left,1,correct,path,1,path1,bolt
27,3,mosquito,0.383588459692,left,1,correct,path,2,path2,bolt
28,3,canoe,0.433749909047,right,1,correct,path,3,path3,bolt
29,3,domino,6.23331209252,left,1,correct,decision,1,decision1,bolt
30,3,ambulance,3.63353963397,right,1,correct,arm1,1,arm11,bolt
31,3,trunk,1.30043229251,left,1,correct,arm1,2,arm12,bolt
32,3,peach,1.10028244962,left,1,correct,arm1,3,arm13,bolt
33,3,garlic,3.10037149809,right,1,correct,decision,2,decision2,bolt
34,3,mug,6.3668926284,right,1,correct,arm2,1,arm21,bolt
35,3,branch,0.666719089553,left,1,correct,arm2,2,arm22,bolt
36,3,bolt,2.61688727039,right,1,correct,arm2,3,arm23,bolt
37,4,bolt,2.23374344929,space,1,correct,target,NaN,targetNaN,bolt
38,4,coffeepot,1.26691052865,left,1,correct,path,1,path1,bolt
39,4,mosquito,0.366903495335,left,1,correct,path,2,path2,bolt
40,4,canoe,0.26691535837,right,1,correct,path,3,path3,bolt
41,4,domino,1.55023465023,right,1,correct,decision,1,decision1,bolt
42,4,ambulance,2.63355412323,right,1,correct,arm1,1,arm11,bolt
43,4,trunk,0.533658053319,left,1,correct,arm1,2,arm12,bolt
44,4,peach,1.36711208001,left,1,correct,arm1,3,arm13,bolt
45,4,garlic,2.76686509882,left,1,correct,decision,2,decision2,bolt
46,4,mug,2.10022449266,right,1,correct,arm2,1,arm21,bolt
47,4,branch,0.450243796571,left,1,correct,arm2,2,arm22,bolt
48,4,bolt,0.533588323829,right,1,correct,arm2,3,arm23,bolt
49,5,bolt,3.91692382551,space,1,correct,target,NaN,targetNaN,bolt
50,5,coffeepot,7.65012589036,left,1,correct,path,1,path1,bolt
51,5,mosquito,0.400257123634,left,1,correct,path,2,path2,bolt
52,5,canoe,0.233562635636,right,1,correct,path,3,path3,bolt
53,5,domino,1.28362115103,left,1,correct,decision,1,decision1,bolt
54,5,ambulance,0.78358749373,right,1,correct,arm1,1,arm11,bolt
55,5,trunk,0.333680572017,left,1,correct,arm1,2,arm12,bolt
56,5,peach,0.533613076288,left,1,correct,arm1,3,arm13,bolt
57,5,garlic,0.967172814067,right,1,correct,decision,2,decision2,bolt
58,5,mug,1.18359980959,right,1,correct,arm2,1,arm21,bolt
59,5,branch,0.416971670202,left,1,correct,arm2,2,arm22,bolt
60,5,bolt,0.333527831244,right,1,correct,arm2,3,arm23,bolt
61,6,bolt,1.35025384848,space,1,correct,target,NaN,targetNaN,bolt
62,6,coffeepot,1.36698590286,left,1,correct,path,1,path1,bolt
63,6,mosquito,0.216922950145,left,1,correct,path,2,path2,bolt
64,6,canoe,0.200283264654,right,1,correct,path,3,path3,bolt
65,6,domino,1.00026744723,left,1,correct,decision,1,decision1,bolt
66,6,ambulance,0.484010971966,right,1,correct,arm1,1,arm11,bolt
67,6,trunk,0.516748203838,left,1,correct,arm1,2,arm12,bolt
68,6,peach,0.200294131588,left,1,correct,arm1,3,arm13,bolt
69,6,garlic,0.883705731976,left,1,correct,decision,2,decision2,bolt
70,6,mug,0.950417818385,right,1,correct,arm2,1,arm21,bolt
71,6,branch,0.333644952625,left,1,correct,arm2,2,arm22,bolt
72,6,bolt,0.600464923511,right,1,correct,arm2,3,arm23,bolt
73,7,lion,1.10058944041,space,1,correct,target,NaN,targetNaN,lion
74,7,coffeepot,1.00024993942,left,1,correct,path,1,path1,lion
75,7,mosquito,0.217240505997,left,1,correct,path,2,path2,lion
76,7,canoe,0.450062681077,right,1,correct,path,3,path3,lion
77,7,goose,0.883665282832,left,1,correct,decision,1,decision1,lion
78,7,sailor,1.48364089261,right,1,correct,arm1,1,arm11,lion
79,7,cooker,0.766913698142,right,1,correct,arm1,2,arm12,lion
80,7,tooth,0.750861732493,right,1,correct,arm1,3,arm13,lion
81,7,crutches,1.83360767303,right,1,correct,decision,2,decision2,lion
82,7,stapler,1.06690044655,right,1,correct,arm2,1,arm21,lion
83,7,rose,0.266883059434,right,1,correct,arm2,2,arm22,lion
84,7,lion,1.66691590173,left,1,correct,arm2,3,arm23,lion
85,8,lion,0.683629844571,space,1,correct,target,NaN,targetNaN,lion
86,8,coffeepot,1.55025366734,left,1,correct,path,1,path1,lion
87,8,mosquito,0.216926270601,left,1,correct,path,2,path2,lion
88,8,canoe,0.333580958453,right,1,correct,path,3,path3,lion
89,8,goose,1.15031108097,left,1,correct,decision,1,decision1,lion
90,8,sailor,0.733637043915,right,1,correct,arm1,1,arm11,lion
91,8,cooker,0.250405472354,right,1,correct,arm1,2,arm12,lion
92,8,tooth,0.216900310712,right,1,correct,arm1,3,arm13,lion
93,8,crutches,1.35059223263,left,1,correct,decision,2,decision2,lion
94,8,stapler,0.550375618477,right,1,correct,arm2,1,arm21,lion
95,8,rose,0.250359589729,right,1,correct,arm2,2,arm22,lion
96,8,lion,0.350328709552,left,1,correct,arm2,3,arm23,lion
97,9,lion,0.533755251992,space,1,correct,target,NaN,targetNaN,lion
98,9,coffeepot,0.733818159439,left,1,correct,path,1,path1,lion
99,9,mosquito,0.216933515214,left,1,correct,path,2,path2,lion
100,9,canoe,0.233400839119,right,1,correct,path,3,path3,lion
101,9,goose,0.850286902045,right,1,correct,decision,1,decision1,lion
102,9,sailor,0.966909592855,right,1,correct,arm1,1,arm11,lion
103,9,cooker,0.166926014004,right,1,correct,arm1,2,arm12,lion
104,9,tooth,0.233537581313,right,1,correct,arm1,3,arm13,lion
105,9,crutches,1.41692458017,right,1,correct,decision,2,decision2,lion
106,9,stapler,0.517168995546,right,1,correct,arm2,1,arm21,lion
107,9,rose,0.266937997803,right,1,correct,arm2,2,arm22,lion
108,9,lion,0.250276276609,left,1,correct,arm2,3,arm23,lion
109,10,bolt,1.00063752659,space,1,correct,target,NaN,targetNaN,bolt
110,10,coffeepot,0.767226726137,left,1,correct,path,1,path1,bolt
111,10,mosquito,0.216934722645,left,1,correct,path,2,path2,bolt
112,10,canoe,0.30032875482,right,1,correct,path,3,path3,bolt
113,10,domino,0.933676708228,left,1,correct,decision,1,decision1,bolt
114,10,ambulance,0.550296833244,right,1,correct,arm1,1,arm11,bolt
115,10,trunk,0.600244566303,left,1,correct,arm1,2,arm12,bolt
116,10,peach,0.250316423888,left,1,correct,arm1,3,arm13,bolt
117,10,garlic,0.883735917887,left,1,correct,decision,2,decision2,bolt
118,10,mug,0.583580732084,right,1,correct,arm2,1,arm21,bolt
119,10,branch,0.416919448588,left,1,correct,arm2,2,arm22,bolt
120,10,bolt,1.06691040788,right,1,correct,arm2,3,arm23,bolt
121,11,lion,1.00028676621,space,1,correct,target,NaN,targetNaN,lion
122,11,coffeepot,1.00028193646,left,1,correct,path,1,path1,lion
123,11,mosquito,0.283362155868,left,1,correct,path,2,path2,lion
124,11,canoe,0.816913954739,right,1,correct,path,3,path3,lion
125,11,goose,2.53361368002,left,1,correct,decision,1,decision1,lion
126,11,sailor,0.617063556158,right,1,correct,arm1,1,arm11,lion
127,11,cooker,0.500612925069,right,1,correct,arm1,2,arm12,lion
128,11,tooth,0.450250739319,right,1,correct,arm1,3,arm13,lion
129,11,crutches,5.30022883945,right,1,correct,decision,2,decision2,lion
130,11,stapler,0.550257893396,right,1,correct,arm2,1,arm21,lion
131,11,rose,0.416965934885,right,1,correct,arm2,2,arm22,lion
132,11,lion,0.416941182426,left,1,correct,arm2,3,arm23,lion
133,12,lion,0.516938978864,space,1,correct,target,NaN,targetNaN,lion
134,12,coffeepot,1.01692856473,left,1,correct,path,1,path1,lion
135,12,mosquito,0.216710139415,left,1,correct,path,2,path2,lion
136,12,canoe,0.1668713775,right,1,correct,path,3,path3,lion
137,12,goose,0.516993917234,right,1,correct,decision,1,decision1,lion
138,12,sailor,0.600354744907,right,1,correct,arm1,1,arm11,lion
139,12,cooker,0.16690035598,right,1,correct,arm1,2,arm12,lion
140,12,tooth,0.233567163494,right,1,correct,arm1,3,arm13,lion
141,12,crutches,0.500283596688,left,1,correct,decision,2,decision2,lion
142,12,stapler,0.466759719799,right,1,correct,arm2,1,arm21,lion
143,12,rose,0.367159773741,right,1,correct,arm2,2,arm22,lion
144,12,lion,0.21702195995,left,1,correct,arm2,3,arm23,lion
145,13,bolt,0.783734197321,space,-1,miss,target,NaN,targetNaN,bolt
146,13,coffeepot,0.550276608643,left,-1,miss,path,1,path1,bolt
147,13,mosquito,0.216903329303,left,-1,miss,path,2,path2,bolt
148,13,canoe,0.233598255028,right,-1,miss,path,3,path3,bolt
149,13,domino,0.666914392437,right,-1,miss,decision,1,decision1,bolt
150,13,ambulance,0.61691413587,right,-1,miss,arm1,1,arm11,bolt
151,13,trunk,0.283579192619,left,-1,miss,arm1,2,arm12,bolt
152,13,peach,0.316908370354,left,-1,miss,arm1,3,arm13,bolt
153,13,crutches,1.01675137339,left,-1,miss,decision,2,decision2,bolt
154,13,stapler,1.98364466586,right,-1,miss,arm2,1,arm21,bolt
155,13,rose,0.750129422144,right,-1,miss,arm2,2,arm22,bolt
156,13,lion,0.116981903237,left,-1,miss,arm2,3,arm23,bolt
157,14,lion,0.733930149174,space,-1,miss,target,NaN,targetNaN,lion
158,14,coffeepot,0.733370804141,left,-1,miss,path,1,path1,lion
159,14,mosquito,0.666714863532,left,-1,miss,path,2,path2,lion
160,14,canoe,0.114051756158,right,-1,miss,path,3,path3,lion
161,14,domino,0.0170218392159,right,-1,miss,decision,1,decision1,lion
162,14,ambulance,4.11700031665,right,-1,miss,arm1,1,arm11,lion
163,14,trunk,0.250253335311,left,-1,miss,arm1,2,arm12,lion
164,14,peach,0.550235857663,left,-1,miss,arm1,3,arm13,lion
165,14,garlic,6.23330122558,left,-1,miss,decision,2,decision2,lion
166,14,mug,0.900260293187,right,-1,miss,arm2,1,arm21,lion
167,14,branch,0.80030928491,left,-1,miss,arm2,2,arm22,lion
168,14,bolt,0.300023575197,right,-1,miss,arm2,3,arm23,lion
169,15,bolt,4.20028115163,space,1,correct,target,NaN,targetNaN,bolt
170,15,coffeepot,0.433656030858,left,1,correct,path,1,path1,bolt
171,15,mosquito,0.350290373433,left,1,correct,path,2,path2,bolt
172,15,canoe,0.250257863197,right,1,correct,path,3,path3,bolt
173,15,domino,1.33362291692,right,1,correct,decision,1,decision1,bolt
174,15,ambulance,0.817079977307,right,1,correct,arm1,1,arm11,bolt
175,15,trunk,0.566961271164,left,1,correct,arm1,2,arm12,bolt
176,15,peach,0.333596353303,left,1,correct,arm1,3,arm13,bolt
177,15,garlic,1.08368955232,left,1,correct,decision,2,decision2,bolt
178,15,mug,0.433665086632,right,1,correct,arm2,1,arm21,bolt
179,15,branch,0.650227918784,left,1,correct,arm2,2,arm22,bolt
180,15,bolt,1.33359333471,right,1,correct,arm2,3,arm23,bolt
181,16,bolt,0.483677115728,space,1,correct,target,NaN,targetNaN,bolt
182,16,coffeepot,0.500286313414,left,1,correct,path,1,path1,bolt
183,16,mosquito,0.400287007709,left,1,correct,path,2,path2,bolt
184,16,canoe,1.40024082328,right,1,correct,path,3,path3,bolt
185,16,domino,0.967113951541,right,1,correct,decision,1,decision1,bolt
186,16,ambulance,0.466922723746,right,1,correct,arm1,1,arm11,bolt
187,16,trunk,0.266970598634,left,1,correct,arm1,2,arm12,bolt
188,16,peach,0.500460788026,left,1,correct,arm1,3,arm13,bolt
189,16,garlic,0.833640575671,right,1,correct,decision,2,decision2,bolt
190,16,mug,0.900278706598,right,1,correct,arm2,1,arm21,bolt
191,16,branch,0.416934541543,left,1,correct,arm2,2,arm22,bolt
192,16,bolt,0.683588187996,right,1,correct,arm2,3,arm23,bolt
193,17,bolt,0.483688284527,space,1,correct,target,NaN,targetNaN,bolt
194,17,coffeepot,0.51694109189,left,1,correct,path,1,path1,bolt
195,17,mosquito,0.283539347205,left,1,correct,path,2,path2,bolt
196,17,canoe,0.21690966835,right,1,correct,path,3,path3,bolt
197,17,domino,0.800272458087,left,1,correct,decision,1,decision1,bolt
198,17,ambulance,0.400609997043,right,1,correct,arm1,1,arm11,bolt
199,17,trunk,0.316901125741,left,1,correct,arm1,2,arm12,bolt
200,17,peach,0.450416460022,left,1,correct,arm1,3,arm13,bolt
201,17,garlic,0.550260911958,right,1,correct,decision,2,decision2,bolt
202,17,mug,1.06698406153,right,1,correct,arm2,1,arm21,bolt
203,17,branch,0.283614208282,left,1,correct,arm2,2,arm22,bolt
204,17,bolt,0.416891979374,right,1,correct,arm2,3,arm23,bolt
205,18,bolt,0.433640937903,space,1,correct,target,NaN,targetNaN,bolt
206,18,coffeepot,0.366922512447,left,1,correct,path,1,path1,bolt
207,18,mosquito,0.316957573377,left,1,correct,path,2,path2,bolt
208,18,canoe,0.216922346415,right,1,correct,path,3,path3,bolt
209,18,domino,0.750271899655,right,1,correct,decision,1,decision1,bolt
210,18,ambulance,0.483617951337,right,1,correct,arm1,1,arm11,bolt
211,18,trunk,0.266942827555,left,1,correct,arm1,2,arm12,bolt
212,18,peach,0.383601137786,left,1,correct,arm1,3,arm13,bolt
213,18,garlic,2.71691223414,right,1,correct,decision,2,decision2,bolt
214,18,mug,0.516913622705,right,1,correct,arm2,1,arm21,bolt
215,18,branch,0.467746799317,left,1,correct,arm2,2,arm22,bolt
216,18,bolt,0.283627490076,right,1,correct,arm2,3,arm23,bolt
217,19,lion,0.850327049324,space,1,correct,target,NaN,targetNaN,lion
218,19,coffeepot,0.517061231832,left,1,correct,path,1,path1,lion
219,19,mosquito,0.567048206605,left,1,correct,path,2,path2,lion
220,19,canoe,0.400303911825,right,1,correct,path,3,path3,lion
221,19,goose,1.50028027626,right,1,correct,decision,1,decision1,lion
222,19,sailor,0.466923025582,right,1,correct,arm1,1,arm11,lion
223,19,cooker,0.466936307406,right,1,correct,arm1,2,arm12,lion
224,19,tooth,0.366906513926,right,1,correct,arm1,3,arm13,lion
225,19,crutches,1.11685331122,right,1,correct,decision,2,decision2,lion
226,19,stapler,0.750315367361,right,1,correct,arm2,1,arm21,lion
227,19,rose,0.683647050551,right,1,correct,arm2,2,arm22,lion
228,19,lion,1.11693209645,left,1,correct,arm2,3,arm23,lion
229,20,lion,0.616916248866,space,1,correct,target,NaN,targetNaN,lion
230,20,coffeepot,0.350277393503,left,1,correct,path,1,path1,lion
231,20,mosquito,0.266909623053,left,1,correct,path,2,path2,lion
232,20,canoe,0.233599160565,right,1,correct,path,3,path3,lion
233,20,goose,0.433982944349,right,1,correct,decision,1,decision1,lion
234,20,sailor,0.400287913275,right,1,correct,arm1,1,arm11,lion
235,20,cooker,0.233626327914,right,1,correct,arm1,2,arm12,lion
236,20,tooth,0.283729216608,right,1,correct,arm1,3,arm13,lion
237,20,crutches,0.466989434615,right,1,correct,decision,2,decision2,lion
238,20,stapler,0.416922165314,right,1,correct,arm2,1,arm21,lion
239,20,rose,0.367133210151,right,1,correct,arm2,2,arm22,lion
240,20,lion,0.266950072168,left,1,correct,arm2,3,arm23,lion
241,21,lion,0.350453075545,space,1,correct,target,NaN,targetNaN,lion
242,21,coffeepot,0.300370411394,left,1,correct,path,1,path1,lion
243,21,mosquito,0.200234363467,left,1,correct,path,2,path2,lion
244,21,canoe,0.183565095795,right,1,correct,path,3,path3,lion
245,21,goose,0.450545353902,right,1,correct,decision,1,decision1,lion
246,21,sailor,0.433701309725,right,1,correct,arm1,1,arm11,lion
247,21,cooker,0.216962191829,right,1,correct,arm1,2,arm12,lion
248,21,tooth,0.250301029067,right,1,correct,arm1,3,arm13,lion
249,21,crutches,0.500368720997,right,1,correct,decision,2,decision2,lion
250,21,stapler,0.350254452176,right,1,correct,arm2,1,arm21,lion
251,21,rose,0.300319095317,right,1,correct,arm2,2,arm22,lion
252,21,lion,0.23365862685,left,1,correct,arm2,3,arm23,lion
253,22,bolt,0.533627565543,space,1,correct,target,NaN,targetNaN,bolt
254,22,coffeepot,0.433595357172,left,1,correct,path,1,path1,bolt
255,22,mosquito,0.333579147322,left,1,correct,path,2,path2,bolt
256,22,canoe,0.46691819586,right,1,correct,path,3,path3,bolt
257,22,domino,0.500285709742,right,1,correct,decision,1,decision1,bolt
258,22,ambulance,0.517057005811,right,1,correct,arm1,1,arm11,bolt
259,22,trunk,0.300259930955,left,1,correct,arm1,2,arm12,bolt
260,22,peach,0.40025863293,left,1,correct,arm1,3,arm13,bolt
261,22,garlic,0.866989676113,left,1,correct,decision,2,decision2,bolt
262,22,mug,0.400261953415,right,1,correct,arm2,1,arm21,bolt
263,22,branch,0.350362819619,left,1,correct,arm2,2,arm22,bolt
264,22,bolt,0.466948683636,right,1,correct,arm2,3,arm23,bolt
265,23,bolt,0.883610948193,space,1,correct,target,NaN,targetNaN,bolt
266,23,coffeepot,0.483627912676,left,1,correct,path,1,path1,bolt
267,23,mosquito,0.26688758735,left,1,correct,path,2,path2,bolt
268,23,canoe,0.233609725663,right,1,correct,path,3,path3,bolt
269,23,domino,0.450307186984,left,1,correct,decision,1,decision1,bolt
270,23,ambulance,1.08358239231,right,1,correct,arm1,1,arm11,bolt
271,23,trunk,0.583588882291,left,1,correct,arm1,2,arm12,bolt
272,23,peach,0.333582467778,left,1,correct,arm1,3,arm13,bolt
273,23,garlic,0.950282585487,left,1,correct,decision,2,decision2,bolt
274,23,mug,1.30026294952,right,1,correct,arm2,1,arm21,bolt
275,23,branch,0.566905125364,left,1,correct,arm2,2,arm22,bolt
276,23,bolt,0.366903495305,right,1,correct,arm2,3,arm23,bolt
277,24,bolt,0.916851983056,space,1,correct,target,NaN,targetNaN,bolt
278,24,coffeepot,0.450365143974,left,1,correct,path,1,path1,bolt
279,24,mosquito,0.316927689331,left,1,correct,path,2,path2,bolt
280,24,canoe,0.41719625346,right,1,correct,path,3,path3,bolt
281,24,domino,0.550319170783,right,1,correct,decision,1,decision1,bolt
282,24,ambulance,1.41693363598,right,1,correct,arm1,1,arm11,bolt
283,24,trunk,0.383861340408,left,1,correct,arm1,2,arm12,bolt
284,24,peach,0.283632621664,left,1,correct,arm1,3,arm13,bolt
285,24,garlic,0.816902484075,left,1,correct,decision,2,decision2,bolt
286,24,mug,0.367060160235,right,1,correct,arm2,1,arm21,bolt
287,24,branch,0.38361200472,left,1,correct,arm2,2,arm22,bolt
288,24,bolt,0.40028942257,right,1,correct,arm2,3,arm23,bolt
289,25,bolt,0.367065291852,space,1,correct,target,NaN,targetNaN,bolt
290,25,coffeepot,0.700294584385,left,1,correct,path,1,path1,bolt
291,25,mosquito,0.333577336161,left,1,correct,path,2,path2,bolt
292,25,canoe,0.367013975803,right,1,correct,path,3,path3,bolt
293,25,domino,0.700072416017,left,1,correct,decision,1,decision1,bolt
294,25,ambulance,0.383750558045,right,1,correct,arm1,1,arm11,bolt
295,25,trunk,0.416945710313,left,1,correct,arm1,2,arm12,bolt
296,25,peach,0.28368091915,left,1,correct,arm1,3,arm13,bolt
297,25,garlic,0.41698163157,right,1,correct,decision,2,decision2,bolt
298,25,mug,0.433816016215,right,1,correct,arm2,1,arm21,bolt
299,25,branch,0.483712433226,left,1,correct,arm2,2,arm22,bolt
300,25,bolt,0.366968998744,right,1,correct,arm2,3,arm23,bolt
301,26,lion,1.10047594138,space,1,correct,target,NaN,targetNaN,lion
302,26,coffeepot,0.366909532488,left,1,correct,path,1,path1,lion
303,26,mosquito,0.267207558063,left,1,correct,path,2,path2,lion
304,26,canoe,0.333543226094,right,1,correct,path,3,path3,lion
305,26,goose,0.483664739499,left,1,correct,decision,1,decision1,lion
306,26,sailor,0.450243796571,right,1,correct,arm1,1,arm11,lion
307,26,cooker,0.183676783694,right,1,correct,arm1,2,arm12,lion
308,26,tooth,0.250326083391,right,1,correct,arm1,3,arm13,lion
309,26,crutches,0.416902242607,left,1,correct,decision,2,decision2,lion
310,26,stapler,0.55024098928,right,1,correct,arm2,1,arm21,lion
311,26,rose,0.38367871556,right,1,correct,arm2,2,arm22,lion
312,26,lion,0.18359558357,left,1,correct,arm2,3,arm23,lion
313,27,bolt,0.517076324788,space,1,correct,target,NaN,targetNaN,bolt
314,27,coffeepot,1.70040657415,left,1,correct,path,1,path1,bolt
315,27,mosquito,0.333922964957,left,1,correct,path,2,path2,bolt
316,27,canoe,0.400071178417,right,1,correct,path,3,path3,bolt
317,27,domino,3.83364389613,right,1,correct,decision,1,decision1,bolt
318,27,ambulance,0.617052689224,right,1,correct,arm1,1,arm11,bolt
319,27,trunk,0.216986038722,left,1,correct,arm1,2,arm12,bolt
320,27,peach,0.283687258197,left,1,correct,arm1,3,arm13,bolt
321,27,garlic,0.866967640381,right,1,correct,decision,2,decision2,bolt
322,27,mug,0.617247086542,right,1,correct,arm2,1,arm21,bolt
323,27,branch,0.400358850195,left,1,correct,arm2,2,arm22,bolt
324,27,bolt,0.316891768103,right,1,correct,arm2,3,arm23,bolt
325,28,lion,0.567110691452,space,1,correct,target,NaN,targetNaN,lion
326,28,coffeepot,0.534253923339,left,1,correct,path,1,path1,lion
327,28,mosquito,0.667196027032,left,1,correct,path,2,path2,lion
328,28,canoe,0.112893824349,right,1,correct,path,3,path3,lion
329,28,goose,1.45027186949,right,1,correct,decision,1,decision1,lion
330,28,sailor,0.433855559764,right,1,correct,arm1,1,arm11,lion
331,28,cooker,0.166968274309,right,1,correct,arm1,2,arm12,lion
332,28,tooth,0.217097122892,right,1,correct,arm1,3,arm13,lion
333,28,crutches,1.10051880535,right,1,correct,decision,2,decision2,lion
334,28,stapler,0.400344662834,right,1,correct,arm2,1,arm21,lion
335,28,rose,0.517168090009,right,1,correct,arm2,2,arm22,lion
336,28,lion,0.166981556104,left,1,correct,arm2,3,arm23,lion
337,29,lion,0.617139624665,space,1,correct,target,NaN,targetNaN,lion
338,29,coffeepot,0.433605318511,left,1,correct,path,1,path1,lion
339,29,mosquito,0.333639217279,left,1,correct,path,2,path2,lion
340,29,canoe,0.217005357699,right,1,correct,path,3,path3,lion
341,29,goose,0.583792939084,right,1,correct,decision,1,decision1,lion
342,29,sailor,0.466917592159,right,1,correct,arm1,1,arm11,lion
343,29,cooker,0.366997977253,right,1,correct,arm1,2,arm12,lion
344,29,tooth,0.300324226933,right,1,correct,arm1,3,arm13,lion
345,29,crutches,0.500264881412,left,1,correct,decision,2,decision2,lion
346,29,stapler,0.400521250413,right,1,correct,arm2,1,arm21,lion
347,29,rose,0.266783144063,right,1,correct,arm2,2,arm22,lion
348,29,lion,0.266925319738,left,1,correct,arm2,3,arm23,lion
349,30,bolt,1.45029149033,space,1,correct,target,NaN,targetNaN,bolt
350,30,coffeepot,0.733563692134,left,1,correct,path,1,path1,bolt
351,30,mosquito,0.600145858363,left,1,correct,path,2,path2,bolt
352,30,canoe,0.114063830522,right,1,correct,path,3,path3,bolt
353,30,domino,0.517096851225,left,1,correct,decision,1,decision1,bolt
354,30,ambulance,0.316981118405,right,1,correct,arm1,1,arm11,bolt
355,30,trunk,0.316955460381,left,1,correct,arm1,2,arm12,bolt
356,30,peach,0.350362819649,left,1,correct,arm1,3,arm13,bolt
357,30,garlic,0.500098557008,left,1,correct,decision,2,decision2,bolt
358,30,mug,0.400339229353,right,1,correct,arm2,1,arm21,bolt
359,30,branch,0.300428972085,left,1,correct,arm2,2,arm22,bolt
360,30,bolt,0.383543180797,right,1,correct,arm2,3,arm23,bolt
361,31,lion,1.05036128018,space,1,correct,target,NaN,targetNaN,lion
362,31,coffeepot,0.600322747836,left,1,correct,path,1,path1,lion
363,31,mosquito,0.266720961052,left,1,correct,path,2,path2,lion
364,31,canoe,0.233612442389,right,1,correct,path,3,path3,lion
365,31,goose,0.533626358112,right,1,correct,decision,1,decision1,lion
366,31,sailor,0.533749516646,right,1,correct,arm1,1,arm11,lion
367,31,cooker,0.183645088458,right,1,correct,arm1,2,arm12,lion
368,31,tooth,0.233594632708,right,1,correct,arm1,3,arm13,lion
369,31,crutches,0.833693401044,left,1,correct,decision,2,decision2,lion
370,31,stapler,0.283606359939,right,1,correct,arm2,1,arm21,lion
371,31,rose,0.300660196226,right,1,correct,arm2,2,arm22,lion
372,31,lion,0.184127157583,left,1,correct,arm2,3,arm23,lion
373,32,lion,0.383672074677,space,1,correct,target,NaN,targetNaN,lion
374,32,coffeepot,0.300287400139,left,1,correct,path,1,path1,lion
375,32,mosquito,0.183597092837,left,1,correct,path,2,path2,lion
376,32,canoe,0.183941212308,right,1,correct,path,3,path3,lion
377,32,goose,0.250411207671,right,1,correct,decision,1,decision1,lion
378,32,sailor,0.367592941679,right,1,correct,arm1,1,arm11,lion
379,32,cooker,0.166922995413,right,1,correct,arm1,2,arm12,lion
380,32,tooth,0.200324015634,right,1,correct,arm1,3,arm13,lion
381,32,crutches,0.283600926457,left,1,correct,decision,2,decision2,lion
382,32,stapler,0.417451928166,right,1,correct,arm2,1,arm21,lion
383,32,rose,0.267021914653,right,1,correct,arm2,2,arm22,lion
384,32,lion,0.200262738217,left,1,correct,arm2,3,arm23,lion
385,33,lion,0.516974296392,space,1,correct,target,NaN,targetNaN,lion
386,33,coffeepot,0.350256565202,left,1,correct,path,1,path1,lion
387,33,mosquito,0.200243117375,left,1,correct,path,2,path2,lion
388,33,canoe,0.200422723574,right,1,correct,path,3,path3,lion
389,33,goose,0.63350642944,left,1,correct,decision,1,decision1,lion
390,33,sailor,0.51704161099,right,1,correct,arm1,1,arm11,lion
391,33,cooker,0.233668588189,right,1,correct,arm1,2,arm12,lion
392,33,tooth,0.250069201225,right,1,correct,arm1,3,arm13,lion
393,33,crutches,0.566983005003,left,1,correct,decision,2,decision2,lion
394,33,stapler,0.35028071393,right,1,correct,arm2,1,arm21,lion
395,33,rose,0.233625422319,right,1,correct,arm2,2,arm22,lion
396,33,lion,0.250274767313,left,1,correct,arm2,3,arm23,lion
397,34,bolt,0.466985208594,space,1,correct,target,NaN,targetNaN,bolt
398,34,coffeepot,0.283812831593,left,1,correct,path,1,path1,bolt
399,34,mosquito,0.866928398696,left,1,correct,path,2,path2,bolt
400,34,canoe,0.113556707103,right,1,correct,path,3,path3,bolt
401,34,domino,1.51697942801,right,1,correct,decision,1,decision1,bolt
402,34,ambulance,0.566947083775,right,1,correct,arm1,1,arm11,bolt
403,34,trunk,0.333583675209,left,1,correct,arm1,2,arm12,bolt
404,34,peach,0.283632923558,left,1,correct,arm1,3,arm13,bolt
405,34,garlic,0.900964228756,right,1,correct,decision,2,decision2,bolt
406,34,mug,0.38361079726,right,1,correct,arm2,1,arm21,bolt
407,34,branch,0.300257817929,left,1,correct,arm2,2,arm22,bolt
408,34,bolt,0.267008632887,right,1,correct,arm2,3,arm23,bolt
409,35,lion,0.600803911366,space,-1,miss,target,NaN,targetNaN,lion
410,35,coffeepot,0.45038204806,left,-1,miss,path,1,path1,lion
411,35,mosquito,0.234092700353,left,-1,miss,path,2,path2,lion
412,35,canoe,0.400307534117,right,-1,miss,path,3,path3,lion
413,35,domino,1.38381062806,left,-1,miss,decision,1,decision1,lion
414,35,ambulance,0.63357917752,right,-1,miss,arm1,1,arm11,lion
415,35,trunk,0.983577049396,left,-1,miss,arm1,2,arm12,lion
416,35,peach,0.317738181242,left,-1,miss,arm1,3,arm13,lion
417,35,garlic,1.11705495315,left,-1,miss,decision,2,decision2,lion
418,35,mug,0.416900431446,right,-1,miss,arm2,1,arm21,lion
419,35,branch,0.466935099976,left,-1,miss,arm2,2,arm22,lion
420,35,bolt,0.266933469946,right,-1,miss,arm2,3,arm23,lion
421,36,lion,7.05033864072,space,1,correct,target,NaN,targetNaN,lion
422,36,coffeepot,1.01700885929,left,1,correct,path,1,path1,lion
423,36,mosquito,0.600288335874,left,1,correct,path,2,path2,lion
424,36,canoe,0.233808047167,right,1,correct,path,3,path3,lion
425,36,goose,0.483564522234,right,1,correct,decision,1,decision1,lion
426,36,sailor,0.40028821514,right,1,correct,arm1,1,arm11,lion
427,36,cooker,0.33357431757,right,1,correct,arm1,2,arm12,lion
428,36,tooth,0.383571555576,right,1,correct,arm1,3,arm13,lion
429,36,crutches,2.11695745267,right,1,correct,decision,2,decision2,lion
430,36,stapler,0.250251222315,right,1,correct,arm2,1,arm21,lion
431,36,rose,0.233561428176,right,1,correct,arm2,2,arm22,lion
432,36,lion,0.266939507128,left,1,correct,arm2,3,arm23,lion
433,37,lion,0.633622645255,space,1,correct,target,NaN,targetNaN,lion
434,37,coffeepot,0.41699521523,left,1,correct,path,1,path1,lion
435,37,mosquito,0.233517658606,left,1,correct,path,2,path2,lion
436,37,canoe,0.250271144992,right,1,correct,path,3,path3,lion
437,37,goose,0.250316122023,right,1,correct,decision,1,decision1,lion
438,37,sailor,0.516975201957,right,1,correct,arm1,1,arm11,lion
439,37,cooker,0.400253199477,right,1,correct,arm1,2,arm12,lion
440,37,tooth,0.433592036716,right,1,correct,arm1,3,arm13,lion
441,37,crutches,0.500302613829,right,1,correct,decision,2,decision2,lion
442,37,stapler,0.300261138356,right,1,correct,arm2,1,arm21,lion
443,37,rose,0.283688767493,right,1,correct,arm2,2,arm22,lion
444,37,lion,0.233586784365,left,1,correct,arm2,3,arm23,lion
445,38,bolt,1.38361170285,space,1,correct,target,NaN,targetNaN,bolt
446,38,coffeepot,0.400239917653,left,1,correct,path,1,path1,bolt
447,38,mosquito,0.434063842607,left,1,correct,path,2,path2,bolt
448,38,canoe,0.433592338552,right,1,correct,path,3,path3,bolt
449,38,domino,0.516956184845,right,1,correct,decision,1,decision1,bolt
450,38,ambulance,1.46691789402,right,1,correct,arm1,1,arm11,bolt
451,38,trunk,0.316923161445,left,1,correct,arm1,2,arm12,bolt
452,38,peach,0.416974990658,left,1,correct,arm1,3,arm13,bolt
453,38,garlic,0.517135489179,right,1,correct,decision,2,decision2,bolt
454,38,mug,0.400253199477,right,1,correct,arm2,1,arm21,bolt
455,38,branch,0.250251826044,left,1,correct,arm2,2,arm22,bolt
456,38,bolt,0.333682685014,right,1,correct,arm2,3,arm23,bolt
457,39,bolt,3.23361093309,space,1,correct,target,NaN,targetNaN,bolt
458,39,coffeepot,0.416936654539,left,1,correct,path,1,path1,bolt
459,39,mosquito,0.250299821637,left,1,correct,path,2,path2,bolt
460,39,canoe,0.517045837041,right,1,correct,path,3,path3,bolt
461,39,domino,0.483678323159,left,1,correct,decision,1,decision1,bolt
462,39,ambulance,0.350263809814,right,1,correct,arm1,1,arm11,bolt
463,39,trunk,0.216929591057,left,1,correct,arm1,2,arm12,bolt
464,39,peach,0.366961452266,left,1,correct,arm1,3,arm13,bolt
465,39,garlic,0.433606224105,right,1,correct,decision,2,decision2,bolt
466,39,mug,0.467025054008,right,1,correct,arm2,1,arm21,bolt
467,39,branch,0.300391843397,left,1,correct,arm2,2,arm22,bolt
468,39,bolt,0.350581969396,right,1,correct,arm2,3,arm23,bolt
469,40,lion,0.60063396467,space,1,correct,target,NaN,targetNaN,lion
470,40,coffeepot,0.400281876093,left,1,correct,path,1,path1,lion
471,40,mosquito,0.283595191169,left,1,correct,path,2,path2,lion
472,40,canoe,0.350373686582,right,1,correct,path,3,path3,lion
473,40,goose,0.450314431597,right,1,correct,decision,1,decision1,lion
474,40,sailor,0.366958433704,right,1,correct,arm1,1,arm11,lion
475,40,cooker,0.183660181443,right,1,correct,arm1,2,arm12,lion
476,40,tooth,0.233681568148,right,1,correct,arm1,3,arm13,lion
477,40,crutches,0.500418527779,right,1,correct,decision,2,decision2,lion
478,40,stapler,0.350424398901,right,1,correct,arm2,1,arm21,lion
479,40,rose,0.233581954613,right,1,correct,arm2,2,arm22,lion
480,40,lion,0.216928987327,left,1,correct,arm2,3,arm23,lion
481,41,bolt,0.700269831927,space,1,correct,target,NaN,targetNaN,bolt
482,41,coffeepot,0.334146038862,left,1,correct,path,1,path1,bolt
483,41,mosquito,0.21692144085,left,1,correct,path,2,path2,bolt
484,41,canoe,0.267076551187,right,1,correct,path,3,path3,bolt
485,41,domino,0.400358246465,right,1,correct,decision,1,decision1,bolt
486,41,ambulance,0.61692832323,right,1,correct,arm1,1,arm11,bolt
487,41,trunk,0.18358018875,left,1,correct,arm1,2,arm12,bolt
488,41,peach,0.266936488537,left,1,correct,arm1,3,arm13,bolt
489,41,garlic,0.533643865929,left,1,correct,decision,2,decision2,bolt
490,41,mug,0.383575781598,right,1,correct,arm2,1,arm21,bolt
491,41,branch,0.450277906668,left,1,correct,arm2,2,arm22,bolt
492,41,bolt,0.25026571154,right,1,correct,arm2,3,arm23,bolt
493,42,bolt,0.816976137721,space,1,correct,target,NaN,targetNaN,bolt
494,42,coffeepot,0.466937514837,left,1,correct,path,1,path1,bolt
495,42,mosquito,0.366906212032,left,1,correct,path,2,path2,bolt
496,42,canoe,2.7502242059,right,1,correct,path,3,path3,bolt
497,42,domino,1.48361161226,right,1,correct,decision,1,decision1,bolt
498,42,ambulance,2.13358596936,right,1,correct,arm1,1,arm11,bolt
499,42,trunk,0.283705369744,left,1,correct,arm1,2,arm12,bolt
500,42,peach,0.316889353213,left,1,correct,arm1,3,arm13,bolt
501,42,garlic,0.550309209444,right,1,correct,decision,2,decision2,bolt
502,42,mug,1.53359556847,right,1,correct,arm2,1,arm21,bolt
503,42,branch,0.217040675227,left,1,correct,arm2,2,arm22,bolt
504,42,bolt,0.283602737618,right,1,correct,arm2,3,arm23,bolt
505,43,lion,1.4002996858,space,1,correct,target,NaN,targetNaN,lion
506,43,coffeepot,0.433599583193,left,1,correct,path,1,path1,lion
507,43,mosquito,0.250309782976,left,1,correct,path,2,path2,lion
508,43,canoe,0.2835963986,right,1,correct,path,3,path3,lion
509,43,goose,0.616937379004,left,1,correct,decision,1,decision1,lion
510,43,sailor,0.40027704637,right,1,correct,arm1,1,arm11,lion
511,43,cooker,0.267230499361,right,1,correct,arm1,2,arm12,lion
512,43,tooth,0.433451370336,right,1,correct,arm1,3,arm13,lion
513,43,crutches,0.400409562542,right,1,correct,decision,2,decision2,lion
514,43,stapler,0.333372373803,right,1,correct,arm2,1,arm21,lion
515,43,rose,0.200250361988,right,1,correct,arm2,2,arm22,lion
516,43,lion,0.217014715337,left,1,correct,arm2,3,arm23,lion
517,44,lion,1.75030570789,space,1,correct,target,NaN,targetNaN,lion
518,44,coffeepot,0.333567676687,left,1,correct,path,1,path1,lion
519,44,mosquito,0.350370064261,left,1,correct,path,2,path2,lion
520,44,canoe,0.300380372762,right,1,correct,path,3,path3,lion
521,44,goose,0.950408158911,left,1,correct,decision,1,decision1,lion
522,44,sailor,0.300317887886,right,1,correct,arm1,1,arm11,lion
523,44,cooker,0.150267311401,right,1,correct,arm1,2,arm12,lion
524,44,tooth,0.216987849853,right,1,correct,arm1,3,arm13,lion
525,44,crutches,0.617144454387,left,1,correct,decision,2,decision2,lion
526,44,stapler,0.283617830573,right,1,correct,arm2,1,arm21,lion
527,44,rose,0.250259070628,right,1,correct,arm2,2,arm22,lion
528,44,lion,0.200263040082,left,1,correct,arm2,3,arm23,lion
529,45,bolt,0.633400778723,space,1,correct,target,NaN,targetNaN,bolt
530,45,coffeepot,0.516909698548,left,1,correct,path,1,path1,bolt
531,45,mosquito,0.250240355381,left,1,correct,path,2,path2,bolt
532,45,canoe,0.233612140524,right,1,correct,path,3,path3,bolt
533,45,domino,0.483874531637,left,1,correct,decision,1,decision1,bolt
534,45,ambulance,0.233683681174,right,1,correct,arm1,1,arm11,bolt
535,45,trunk,0.317043905117,left,1,correct,arm1,2,arm12,bolt
536,45,peach,0.250347213529,left,1,correct,arm1,3,arm13,bolt
537,45,garlic,0.300339018053,left,1,correct,decision,2,decision2,bolt
538,45,mug,0.300159109989,right,1,correct,arm2,1,arm21,bolt
539,45,branch,0.216933515214,left,1,correct,arm2,2,arm22,bolt
540,45,bolt,0.283686654468,right,1,correct,arm2,3,arm23,bolt
541,46,lion,1.08341667164,space,1,correct,target,NaN,targetNaN,lion
542,46,coffeepot,0.266922603012,left,1,correct,path,1,path1,lion
543,46,mosquito,0.283686956333,left,1,correct,path,2,path2,lion
544,46,canoe,0.250063164043,right,1,correct,path,3,path3,lion
545,46,goose,0.383720673999,right,1,correct,decision,1,decision1,lion
546,46,sailor,0.433558530349,right,1,correct,arm1,1,arm11,lion
547,46,cooker,0.233594330843,right,1,correct,arm1,2,arm12,lion
548,46,tooth,0.400778132578,right,1,correct,arm1,3,arm13,lion
549,46,crutches,0.350307881279,right,1,correct,decision,2,decision2,lion
550,46,stapler,0.333628350374,right,1,correct,arm2,1,arm21,lion
551,46,rose,0.267760865943,right,1,correct,arm2,2,arm22,lion
552,46,lion,0.217101047077,left,1,correct,arm2,3,arm23,lion
553,47,bolt,1.13376467,space,1,correct,target,NaN,targetNaN,bolt
554,47,coffeepot,1.03357972085,left,1,correct,path,1,path1,bolt
555,47,mosquito,0.76703534741,left,1,correct,path,2,path2,bolt
556,47,canoe,0.113738728222,right,1,correct,path,3,path3,bolt
557,47,domino,0.416905563063,left,1,correct,decision,1,decision1,bolt
558,47,ambulance,0.750264353177,right,1,correct,arm1,1,arm11,bolt
559,47,trunk,0.20019844221,left,1,correct,arm1,2,arm12,bolt
560,47,peach,0.450255267206,left,1,correct,arm1,3,arm13,bolt
561,47,garlic,1.26696214656,right,1,correct,decision,2,decision2,bolt
562,47,mug,0.400242030679,right,1,correct,arm2,1,arm21,bolt
563,47,branch,0.333596051438,left,1,correct,arm2,2,arm22,bolt
564,47,bolt,0.3335866938,right,1,correct,arm2,3,arm23,bolt
565,48,lion,0.933669463586,space,1,correct,target,NaN,targetNaN,lion
566,48,coffeepot,0.416903148172,left,1,correct,path,1,path1,lion
567,48,mosquito,0.300278042501,left,1,correct,path,2,path2,lion
568,48,canoe,0.300248762156,right,1,correct,path,3,path3,lion
569,48,goose,0.38359540244,right,1,correct,decision,1,decision1,lion
570,48,sailor,0.500270918594,right,1,correct,arm1,1,arm11,lion
571,48,cooker,0.233573200705,right,1,correct,arm1,2,arm12,lion
572,48,tooth,0.28360937853,right,1,correct,arm1,3,arm13,lion
573,48,crutches,0.767016330297,right,1,correct,decision,2,decision2,lion
574,48,stapler,0.400248369726,right,1,correct,arm2,1,arm21,lion
575,48,rose,0.250383738487,right,1,correct,arm2,2,arm22,lion
576,48,lion,0.466726213432,left,1,correct,arm2,3,arm23,lion
577,49,bolt,2.43361618544,space,1,correct,target,NaN,targetNaN,bolt
578,49,coffeepot,0.283576475893,left,1,correct,path,1,path1,bolt
579,49,mosquito,0.266725790803,left,1,correct,path,2,path2,bolt
580,49,canoe,0.233576521161,right,1,correct,path,3,path3,bolt
581,49,domino,0.283688767464,left,1,correct,decision,1,decision1,bolt
582,49,ambulance,0.433589018125,right,1,correct,arm1,1,arm11,bolt
583,49,trunk,0.250240657217,left,1,correct,arm1,2,arm12,bolt
584,49,peach,0.333614464849,left,1,correct,arm1,3,arm13,bolt
585,49,garlic,0.383578498324,right,1,correct,decision,2,decision2,bolt
586,49,mug,0.366945453745,right,1,correct,arm2,1,arm21,bolt
587,49,branch,0.200257002929,left,1,correct,arm2,2,arm22,bolt
588,49,bolt,0.31691108708,right,1,correct,arm2,3,arm23,bolt
589,50,bolt,2.13362792777,space,1,correct,target,NaN,targetNaN,bolt
590,50,coffeepot,0.166909411782,left,1,correct,path,1,path1,bolt
591,50,mosquito,0.183593470545,left,1,correct,path,2,path2,bolt
592,50,canoe,0.200227722555,right,1,correct,path,3,path3,bolt
593,50,domino,0.41698102784,right,1,correct,decision,1,decision1,bolt
594,50,ambulance,0.550253365509,right,1,correct,arm1,1,arm11,bolt
595,50,trunk,0.216928081732,left,1,correct,arm1,2,arm12,bolt
596,50,peach,0.233393896342,left,1,correct,arm1,3,arm13,bolt
597,50,garlic,0.633823381591,right,1,correct,decision,2,decision2,bolt
598,50,mug,0.36702906873,right,1,correct,arm2,1,arm21,bolt
599,50,branch,0.166957407375,left,1,correct,arm2,2,arm22,bolt
600,50,bolt,0.233584369475,right,1,correct,arm2,3,arm23,bolt
