pic_index,trial_num,pic_name,rt,resp,feedback_code,feedback,segment,segment_index,pic_type,trial_target
1,1,arc,3.11693752994,space,-1,miss,target,NaN,targetNaN,arc
2,1,trophy,3.5168707587,left,-1,miss,path,1,path1,arc
3,1,astronaut,0.833574166667,right,-1,miss,path,2,path2,arc
4,1,robot,1.05025321458,right,-1,miss,path,3,path3,arc
5,1,watch,1.86690243881,right,-1,miss,decision,1,decision1,arc
6,1,clover,3.10025286744,left,-1,miss,arm1,1,arm11,arc
7,1,radio,2.71688385936,right,-1,miss,arm1,2,arm12,arc
8,1,wing,1.13360559018,left,-1,miss,arm1,3,arm13,arc
9,1,stepladder,1.30027140159,right,-1,miss,decision,2,decision2,arc
10,1,calc,2.8000216131,right,-1,miss,arm2,1,arm21,arc
11,1,tongue,1.0335754948,right,-1,miss,arm2,2,arm22,arc
12,1,beaver,1.13361041993,left,-1,miss,arm2,3,arm23,arc
13,2,arc,4.43356758612,space,1,correct,target,NaN,targetNaN,arc
14,2,trophy,3.50019515198,left,1,correct,path,1,path1,arc
15,2,astronaut,0.983572823374,right,1,correct,path,2,path2,arc
16,2,robot,0.583658913616,right,1,correct,path,3,path3,arc
17,2,watch,3.85020268336,right,1,correct,decision,1,decision1,arc
18,2,clover,2.50022986575,left,1,correct,arm1,1,arm11,arc
19,2,radio,1.00025839146,right,1,correct,arm1,2,arm12,arc
20,2,wing,0.983570710348,left,1,correct,arm1,3,arm13,arc
21,2,holly,1.48363576102,left,1,correct,decision,2,decision2,arc
22,2,match,1.16693205119,right,1,correct,arm2,1,arm21,arc
23,2,baby,0.800335848529,left,1,correct,arm2,2,arm22,arc
24,2,arc,3.6333751207,left,1,correct,arm2,3,arm23,arc
25,3,beaver,6.06730101368,space,1,correct,target,NaN,targetNaN,beaver
26,3,trophy,2.38352416368,left,1,correct,path,1,path1,beaver
27,3,astronaut,2.88355208564,right,1,correct,path,2,path2,beaver
28,3,robot,0.466957437544,right,1,correct,path,3,path3,beaver
29,3,pigeon,6.9169138642,right,1,correct,decision,1,decision1,beaver
30,3,bus,4.30021465206,right,1,correct,arm1,1,arm11,beaver
31,3,deer,0.733586935268,left,1,correct,arm1,2,arm12,beaver
32,3,fist,0.566880372906,right,1,correct,arm1,3,arm13,beaver
33,3,stepladder,3.98356406947,right,1,correct,decision,2,decision2,beaver
34,3,calc,2.86691632433,right,1,correct,arm2,1,arm21,beaver
35,3,tongue,2.28358221121,right,1,correct,arm2,2,arm22,beaver
36,3,beaver,1.81690218224,left,1,correct,arm2,3,arm23,beaver
37,4,arc,4.33364374519,space,-1,miss,target,NaN,targetNaN,arc
38,4,trophy,2.38356582023,left,-1,miss,path,1,path1,arc
39,4,astronaut,1.36688991165,right,-1,miss,path,2,path2,arc
40,4,robot,0.683677840192,right,-1,miss,path,3,path3,arc
41,4,pigeon,6.46687291699,right,-1,miss,decision,1,decision1,arc
42,4,bus,0.8835753288,right,-1,miss,arm1,1,arm11,arc
43,4,deer,1.3666930995,left,-1,miss,arm1,2,arm12,arc
44,4,fist,0.716995547293,right,-1,miss,arm1,3,arm13,arc
45,4,stepladder,3.20025881406,left,-1,miss,decision,2,decision2,arc
46,4,calc,1.68357973595,right,-1,miss,arm2,1,arm21,arc
47,4,tongue,0.750241110014,right,-1,miss,arm2,2,arm22,arc
48,4,beaver,1.45023685382,left,-1,miss,arm2,3,arm23,arc
49,5,arc,4.58356835588,space,-1,miss,target,NaN,targetNaN,arc
50,5,trophy,4.7003009234,left,-1,miss,path,1,path1,arc
51,5,astronaut,1.51685566574,right,-1,miss,path,2,path2,arc
52,5,robot,0.55025396921,right,-1,miss,path,3,path3,arc
53,5,watch,3.61687972391,right,-1,miss,decision,1,decision1,arc
54,5,clover,5.81685086616,left,-1,miss,arm1,1,arm11,arc
55,5,radio,1.28368031542,right,-1,miss,arm1,2,arm12,arc
56,5,wing,0.600249094219,left,-1,miss,arm1,3,arm13,arc
57,5,stepladder,2.78361707594,left,-1,miss,decision,2,decision2,arc
58,5,calc,1.30077188413,right,-1,miss,arm2,1,arm21,arc
59,5,tongue,0.666910166387,right,-1,miss,arm2,2,arm22,arc
60,5,beaver,0.716911328578,left,-1,miss,arm2,3,arm23,arc
61,6,beaver,1.81693689604,space,0,wrong,target,NaN,targetNaN,beaver
62,6,trophy,2.21689185864,left,0,wrong,path,1,path1,beaver
63,6,astronaut,0.533613378182,right,0,wrong,path,2,path2,beaver
64,6,robot,0.583582241408,right,0,wrong,path,3,path3,beaver
65,6,watch,4.68357913225,left,0,wrong,decision,1,decision1,beaver
66,6,clover,1.68358124525,left,0,wrong,arm1,1,arm11,beaver
67,6,radio,0.483591991448,right,0,wrong,arm1,2,arm12,beaver
68,6,wing,0.966919252358,left,0,wrong,arm1,3,arm13,beaver
69,6,stepladder,3.66698502749,left,0,wrong,decision,2,decision2,beaver
70,6,calc,0.784131142107,right,0,wrong,arm2,1,arm21,beaver
71,6,tongue,2.48392977184,right,0,wrong,arm2,2,arm22,beaver
72,6,beaver,2.50028782274,left,0,wrong,arm2,3,arm23,beaver
73,7,beaver,8.18356298277,space,0,wrong,target,NaN,targetNaN,beaver
74,7,trophy,1.41691039281,left,0,wrong,path,1,path1,beaver
75,7,astronaut,2.75019884974,right,0,wrong,path,2,path2,beaver
76,7,robot,0.283605454344,right,0,wrong,path,3,path3,beaver
77,7,watch,2.48356512596,right,0,wrong,decision,1,decision1,beaver
78,7,clover,3.78355670409,left,0,wrong,arm1,1,arm11,beaver
79,7,radio,0.333570091549,right,0,wrong,arm1,2,arm12,beaver
80,7,wing,0.600246377464,left,0,wrong,arm1,3,arm13,beaver
81,7,stepladder,1.15057430218,right,0,wrong,decision,2,decision2,beaver
82,7,calc,1.06692157668,right,0,wrong,arm2,1,arm21,beaver
83,7,tongue,0.6505687178,right,0,wrong,arm2,2,arm22,beaver
84,7,beaver,0.816925727238,left,0,wrong,arm2,3,arm23,beaver
85,8,arc,3.53358802199,space,1,correct,target,NaN,targetNaN,arc
86,8,trophy,3.73353380806,left,1,correct,path,1,path1,arc
87,8,astronaut,0.666929485393,right,1,correct,path,2,path2,arc
88,8,robot,0.950040796277,right,1,correct,path,3,path3,arc
89,8,watch,2.25098383453,left,1,correct,decision,1,decision1,arc
90,8,clover,2.83355514953,left,1,correct,arm1,1,arm11,arc
91,8,radio,0.416946314042,right,1,correct,arm1,2,arm12,arc
92,8,wing,0.766925168806,left,1,correct,arm1,3,arm13,arc
93,8,holly,1.46694717434,right,1,correct,decision,2,decision2,arc
94,8,match,1.13360709947,right,1,correct,arm2,1,arm21,arc
95,8,baby,1.18363059923,left,1,correct,arm2,2,arm22,arc
96,8,arc,2.68357128388,left,1,correct,arm2,3,arm23,arc
97,9,beaver,2.15034458734,space,-1,miss,target,NaN,targetNaN,beaver
98,9,trophy,3.60020351346,left,-1,miss,path,1,path1,beaver
99,9,astronaut,0.383575479733,right,-1,miss,path,2,path2,beaver
100,9,robot,0.383589063393,right,-1,miss,path,3,path3,beaver
101,9,pigeon,3.55028023096,left,-1,miss,decision,1,decision1,beaver
102,9,bus,1.51693203609,right,-1,miss,arm1,1,arm11,beaver
103,9,deer,2.38363705901,left,-1,miss,arm1,2,arm12,beaver
104,9,fist,0.350304560823,right,-1,miss,arm1,3,arm13,beaver
105,9,holly,2.95022160991,right,-1,miss,decision,2,decision2,beaver
106,9,match,1.53356930672,right,-1,miss,arm2,1,arm21,beaver
107,9,baby,1.35028071393,left,-1,miss,arm2,2,arm22,beaver
108,9,arc,2.78356123198,left,-1,miss,arm2,3,arm23,beaver
109,10,beaver,2.01703300799,space,0,wrong,target,NaN,targetNaN,beaver
110,10,trophy,0.867069668806,left,0,wrong,path,1,path1,beaver
111,10,astronaut,0.250876976381,right,0,wrong,path,2,path2,beaver
112,10,robot,0.533581381082,right,0,wrong,path,3,path3,beaver
113,10,watch,2.23359010482,left,0,wrong,decision,1,decision1,beaver
114,10,clover,2.11689436407,left,0,wrong,arm1,1,arm11,beaver
115,10,radio,0.483585350536,right,0,wrong,arm1,2,arm12,beaver
116,10,wing,0.617050274363,left,0,wrong,arm1,3,arm13,beaver
117,10,stepladder,2.73363493089,left,0,wrong,decision,2,decision2,beaver
118,10,calc,0.666966010351,right,0,wrong,arm2,1,arm21,beaver
119,10,tongue,1.35024901872,right,0,wrong,arm2,2,arm22,beaver
120,10,beaver,0.950258738594,left,0,wrong,arm2,3,arm23,beaver
121,11,arc,3.01697505102,space,0,wrong,target,NaN,targetNaN,arc
122,11,trophy,2.91689424333,left,0,wrong,path,1,path1,arc
123,11,astronaut,1.16750316878,right,0,wrong,path,2,path2,arc
124,11,robot,2.33364283963,right,0,wrong,path,3,path3,arc
125,11,pigeon,3.8169275384,left,0,wrong,decision,1,decision1,arc
126,11,bus,1.41693031552,right,0,wrong,arm1,1,arm11,arc
127,11,deer,0.700360389688,left,0,wrong,arm1,2,arm12,arc
128,11,fist,0.53366107191,right,0,wrong,arm1,3,arm13,arc
129,11,holly,3.83356994062,left,0,wrong,decision,2,decision2,arc
130,11,match,0.916922316246,right,0,wrong,arm2,1,arm21,arc
131,11,baby,0.916911147448,left,0,wrong,arm2,2,arm22,arc
132,11,arc,4.46686748351,left,0,wrong,arm2,3,arm23,arc
133,12,beaver,4.78359141792,space,-1,miss,target,NaN,targetNaN,beaver
134,12,trophy,2.13361404225,left,-1,miss,path,1,path1,beaver
135,12,astronaut,5.43352230726,right,-1,miss,path,2,path2,beaver
136,12,robot,0.366905910196,right,-1,miss,path,3,path3,beaver
137,12,pigeon,6.05017322188,right,-1,miss,decision,1,decision1,beaver
138,12,bus,1.91706358633,right,-1,miss,arm1,1,arm11,beaver
139,12,deer,1.88352220159,left,-1,miss,arm1,2,arm12,beaver
140,12,fist,0.416829494527,right,-1,miss,arm1,3,arm13,beaver
141,12,holly,4.75022903565,left,-1,miss,decision,2,decision2,beaver
142,12,match,1.8169148603,right,-1,miss,arm2,1,arm21,beaver
143,12,baby,0.650261123286,left,-1,miss,arm2,2,arm22,beaver
144,12,arc,3.9335852449,left,-1,miss,arm2,3,arm23,beaver
145,13,beaver,1.11701269288,space,-1,miss,target,NaN,targetNaN,beaver
146,13,trophy,2.73364006254,left,-1,miss,path,1,path1,beaver
147,13,astronaut,0.850309843372,right,-1,miss,path,2,path2,beaver
148,13,robot,0.450259493256,right,-1,miss,path,3,path3,beaver
149,13,watch,3.5669476875,right,-1,miss,decision,1,decision1,beaver
150,13,clover,2.1337969689,left,-1,miss,arm1,1,arm11,beaver
151,13,radio,0.35029671248,right,-1,miss,arm1,2,arm12,beaver
152,13,wing,1.20023225044,left,-1,miss,arm1,3,arm13,beaver
153,13,holly,4.96689178317,right,-1,miss,decision,2,decision2,beaver
154,13,match,0.65041326033,right,-1,miss,arm2,1,arm21,beaver
155,13,baby,0.683766888658,left,-1,miss,arm2,2,arm22,beaver
156,13,arc,0.53359134245,left,-1,miss,arm2,3,arm23,beaver
157,14,arc,1.13390473265,space,1,correct,target,NaN,targetNaN,arc
158,14,trophy,2.15021690089,left,1,correct,path,1,path1,arc
159,14,astronaut,0.266898756119,right,1,correct,path,2,path2,arc
160,14,robot,0.316905653599,right,1,correct,path,3,path3,arc
161,14,watch,1.53342441432,right,1,correct,decision,1,decision1,arc
162,14,clover,2.80023382013,left,1,correct,arm1,1,arm11,arc
163,14,radio,0.300275325775,right,1,correct,arm1,2,arm12,arc
164,14,wing,0.350396929716,left,1,correct,arm1,3,arm13,arc
165,14,holly,1.31689418296,left,1,correct,decision,2,decision2,arc
166,14,match,0.851158671372,right,1,correct,arm2,1,arm21,arc
167,14,baby,0.466945966909,left,1,correct,arm2,2,arm22,arc
168,14,arc,1.58360789943,left,1,correct,arm2,3,arm23,arc
169,15,beaver,3.28360635994,space,0,wrong,target,NaN,targetNaN,beaver
170,15,trophy,3.25027446545,left,0,wrong,path,1,path1,beaver
171,15,astronaut,0.2671281691,right,0,wrong,path,2,path2,beaver
172,15,robot,0.200261228922,right,0,wrong,path,3,path3,beaver
173,15,watch,2.53360190752,right,0,wrong,decision,1,decision1,beaver
174,15,clover,1.83356994062,left,0,wrong,arm1,1,arm11,beaver
175,15,radio,0.216894877231,right,0,wrong,arm1,2,arm12,beaver
176,15,wing,1.03354621449,left,0,wrong,arm1,3,arm13,beaver
177,15,stepladder,1.51763204756,left,0,wrong,decision,2,decision2,beaver
178,15,calc,1.08362072843,right,0,wrong,arm2,1,arm21,beaver
179,15,tongue,0.716711497807,right,0,wrong,arm2,2,arm22,beaver
180,15,beaver,2.26695580751,left,0,wrong,arm2,3,arm23,beaver
181,16,beaver,3.6169168526,space,1,correct,target,NaN,targetNaN,beaver
182,16,trophy,1.08353439672,left,1,correct,path,1,path1,beaver
183,16,astronaut,0.283640470036,right,1,correct,path,2,path2,beaver
184,16,robot,0.333563752502,right,1,correct,path,3,path3,beaver
185,16,pigeon,1.28368484334,left,1,correct,decision,1,decision1,beaver
186,16,bus,1.36740548714,right,1,correct,arm1,1,arm11,beaver
187,16,deer,0.266996256629,left,1,correct,arm1,2,arm12,beaver
188,16,fist,0.400246860459,right,1,correct,arm1,3,arm13,beaver
189,16,stepladder,4.51777271394,right,1,correct,decision,2,decision2,beaver
190,16,calc,2.01690109554,right,1,correct,arm2,1,arm21,beaver
191,16,tongue,0.550629482052,right,1,correct,arm2,2,arm22,beaver
192,16,beaver,3.51693897886,left,1,correct,arm2,3,arm23,beaver
193,17,arc,1.88362090956,space,1,correct,target,NaN,targetNaN,arc
194,17,trophy,3.15021508976,left,1,correct,path,1,path1,arc
195,17,astronaut,0.267319245962,right,1,correct,path,2,path2,arc
196,17,robot,0.18356660509,right,1,correct,path,3,path3,arc
197,17,watch,3.40064682384,right,1,correct,decision,1,decision1,arc
198,17,clover,7.01682925306,left,1,correct,arm1,1,arm11,arc
199,17,radio,0.483593802608,right,1,correct,arm1,2,arm12,arc
200,17,wing,0.533602209354,left,1,correct,arm1,3,arm13,arc
201,17,holly,4.06692338784,left,1,correct,decision,2,decision2,arc
202,17,match,1.30024664913,right,1,correct,arm2,1,arm21,arc
203,17,baby,0.700269530062,left,1,correct,arm2,2,arm22,arc
204,17,arc,1.0002454115,left,1,correct,arm2,3,arm23,arc
205,18,arc,1.75033770496,space,1,correct,target,NaN,targetNaN,arc
206,18,trophy,1.60024154774,left,1,correct,path,1,path1,arc
207,18,astronaut,0.183586527797,right,1,correct,path,2,path2,arc
208,18,robot,0.250268730131,right,1,correct,path,3,path3,arc
209,18,watch,0.783627037279,left,1,correct,decision,1,decision1,arc
210,18,clover,1.33352934057,left,1,correct,arm1,1,arm11,arc
211,18,radio,0.466991849506,right,1,correct,arm1,2,arm12,arc
212,18,wing,1.06689169261,left,1,correct,arm1,3,arm13,arc
213,18,holly,0.933602450852,right,1,correct,decision,2,decision2,arc
214,18,match,2.26690841562,right,1,correct,arm2,1,arm21,arc
215,18,baby,0.517069683905,left,1,correct,arm2,2,arm22,arc
216,18,arc,1.51692720634,left,1,correct,arm2,3,arm23,arc
217,19,arc,2.05028641908,space,1,correct,target,NaN,targetNaN,arc
218,19,trophy,1.80027034506,left,1,correct,path,1,path1,arc
219,19,astronaut,0.266941318288,right,1,correct,path,2,path2,arc
220,19,robot,0.350248716859,right,1,correct,path,3,path3,arc
221,19,watch,0.883622418827,left,1,correct,decision,1,decision1,arc
222,19,clover,2.85055102885,left,1,correct,arm1,1,arm11,arc
223,19,radio,2.16694261628,right,1,correct,arm1,2,arm12,arc
224,19,wing,0.783591719752,left,1,correct,arm1,3,arm13,arc
225,19,holly,1.01711390627,right,1,correct,decision,2,decision2,arc
226,19,match,1.10051850352,right,1,correct,arm2,1,arm21,arc
227,19,baby,0.433587508829,left,1,correct,arm2,2,arm22,arc
228,19,arc,1.01696750455,left,1,correct,arm2,3,arm23,arc
229,20,beaver,2.26691928256,space,1,correct,target,NaN,targetNaN,beaver
230,20,trophy,1.45027669924,left,1,correct,path,1,path1,beaver
231,20,astronaut,0.233616668411,right,1,correct,path,2,path2,beaver
232,20,robot,0.166983367235,right,1,correct,path,3,path3,beaver
233,20,pigeon,0.833948170155,right,1,correct,decision,1,decision1,beaver
234,20,bus,1.9837524296,right,1,correct,arm1,1,arm11,beaver
235,20,deer,0.416922769044,left,1,correct,arm1,2,arm12,beaver
236,20,fist,0.183551814,right,1,correct,arm1,3,arm13,beaver
237,20,stepladder,0.883594345913,left,1,correct,decision,2,decision2,beaver
238,20,calc,1.01677793698,right,1,correct,arm2,1,arm21,beaver
239,20,tongue,0.650234559667,right,1,correct,arm2,2,arm22,beaver
240,20,beaver,1.18388416091,left,1,correct,arm2,3,arm23,beaver
241,21,beaver,1.30064359398,space,1,correct,target,NaN,targetNaN,beaver
242,21,trophy,0.784143518336,left,1,correct,path,1,path1,beaver
243,21,astronaut,0.233657721285,right,1,correct,path,2,path2,beaver
244,21,robot,0.13392374976,right,1,correct,path,3,path3,beaver
245,21,pigeon,0.916941333388,right,1,correct,decision,1,decision1,beaver
246,21,bus,1.81690278597,right,1,correct,arm1,1,arm11,beaver
247,21,deer,0.216907555325,left,1,correct,arm1,2,arm12,beaver
248,21,fist,0.150271537423,right,1,correct,arm1,3,arm13,beaver
249,21,stepladder,0.600288637739,right,1,correct,decision,2,decision2,beaver
250,21,calc,0.933610902895,right,1,correct,arm2,1,arm21,beaver
251,21,tongue,0.533632697159,right,1,correct,arm2,2,arm22,beaver
252,21,beaver,0.616977828118,left,1,correct,arm2,3,arm23,beaver
253,22,arc,2.31691893542,space,1,correct,target,NaN,targetNaN,arc
254,22,trophy,1.23357108768,left,1,correct,path,1,path1,arc
255,22,astronaut,0.150331003679,right,1,correct,path,2,path2,arc
256,22,robot,0.1835641902,right,1,correct,path,3,path3,arc
257,22,watch,0.434075615136,left,1,correct,decision,1,decision1,arc
258,22,clover,1.36700099584,left,1,correct,arm1,1,arm11,arc
259,22,radio,0.250282011955,right,1,correct,arm1,2,arm12,arc
260,22,wing,0.566927764798,left,1,correct,arm1,3,arm13,arc
261,22,holly,1.26710734083,left,1,correct,decision,2,decision2,arc
262,22,match,0.733589953859,right,1,correct,arm2,1,arm21,arc
263,22,baby,0.36694696304,left,1,correct,arm2,2,arm22,arc
264,22,arc,1.51689128511,left,1,correct,arm2,3,arm23,arc
265,23,arc,1.58363325559,space,1,correct,target,NaN,targetNaN,arc
266,23,trophy,1.30024725286,left,1,correct,path,1,path1,arc
267,23,astronaut,0.133571178245,right,1,correct,path,2,path2,arc
268,23,robot,0.200259417761,right,1,correct,path,3,path3,arc
269,23,watch,0.550268156629,left,1,correct,decision,1,decision1,arc
270,23,clover,1.70019225409,left,1,correct,arm1,1,arm11,arc
271,23,radio,0.533595870307,right,1,correct,arm1,2,arm12,arc
272,23,wing,0.316877882549,left,1,correct,arm1,3,arm13,arc
273,23,holly,0.616977828147,left,1,correct,decision,2,decision2,arc
274,23,match,1.28362235846,right,1,correct,arm2,1,arm21,arc
275,23,baby,0.36691677713,left,1,correct,arm2,2,arm22,arc
276,23,arc,0.700279189565,left,1,correct,arm2,3,arm23,arc
277,24,arc,2.90024701136,space,1,correct,target,NaN,targetNaN,arc
278,24,trophy,5.76684547798,left,1,correct,path,1,path1,arc
279,24,astronaut,0.166879225842,right,1,correct,path,2,path2,arc
280,24,robot,0.200242815539,right,1,correct,path,3,path3,arc
281,24,watch,0.516944714182,right,1,correct,decision,1,decision1,arc
282,24,clover,0.950243947504,left,1,correct,arm1,1,arm11,arc
283,24,radio,0.450316846516,right,1,correct,arm1,2,arm12,arc
284,24,wing,0.233750693907,left,1,correct,arm1,3,arm13,arc
285,24,holly,0.517157223076,right,1,correct,decision,2,decision2,arc
286,24,match,2.21753632798,right,1,correct,arm2,1,arm21,arc
287,24,baby,0.433659955044,left,1,correct,arm2,2,arm22,arc
288,24,arc,0.700283415586,left,1,correct,arm2,3,arm23,arc
289,25,beaver,2.43364486206,space,1,correct,target,NaN,targetNaN,beaver
290,25,trophy,1.08372909587,left,1,correct,path,1,path1,beaver
291,25,astronaut,0.28370627531,right,1,correct,path,2,path2,beaver
292,25,robot,0.200448985328,right,1,correct,path,3,path3,beaver
293,25,pigeon,0.566982401302,right,1,correct,decision,1,decision1,beaver
294,25,bus,2.78357179707,right,1,correct,arm1,1,arm11,beaver
295,25,deer,0.233565050527,left,1,correct,arm1,2,arm12,beaver
296,25,fist,0.167479020049,right,1,correct,arm1,3,arm13,beaver
297,25,stepladder,0.566812454577,right,1,correct,decision,2,decision2,beaver
298,25,calc,0.866705928463,right,1,correct,arm2,1,arm21,beaver
299,25,tongue,0.633616004314,right,1,correct,arm2,2,arm22,beaver
300,25,beaver,0.933692404884,left,1,correct,arm2,3,arm23,beaver
301,26,beaver,0.767032328818,space,1,correct,target,NaN,targetNaN,beaver
302,26,trophy,0.766919735353,left,1,correct,path,1,path1,beaver
303,26,astronaut,0.150218712079,right,1,correct,path,2,path2,beaver
304,26,robot,0.166890394612,right,1,correct,path,3,path3,beaver
305,26,pigeon,0.517753998662,right,1,correct,decision,1,decision1,beaver
306,26,bus,1.21717771929,right,1,correct,arm1,1,arm11,beaver
307,26,deer,0.21700777256,left,1,correct,arm1,2,arm12,beaver
308,26,fist,0.200407630648,right,1,correct,arm1,3,arm13,beaver
309,26,stepladder,0.650331758341,left,1,correct,decision,2,decision2,beaver
310,26,calc,0.86703736987,right,1,correct,arm2,1,arm21,beaver
311,26,tongue,0.216943174717,right,1,correct,arm2,2,arm22,beaver
312,26,beaver,0.466931175819,left,1,correct,arm2,3,arm23,beaver
313,27,beaver,1.03377834419,space,1,correct,target,NaN,targetNaN,beaver
314,27,trophy,3.63353329489,left,1,correct,path,1,path1,beaver
315,27,astronaut,0.166926014004,right,1,correct,path,2,path2,beaver
316,27,robot,0.15024769053,right,1,correct,path,3,path3,beaver
317,27,pigeon,0.566945574479,left,1,correct,decision,1,decision1,beaver
318,27,bus,0.933588867192,right,1,correct,arm1,1,arm11,beaver
319,27,deer,0.150453256647,left,1,correct,arm1,2,arm12,beaver
320,27,fist,0.167099281185,right,1,correct,arm1,3,arm13,beaver
321,27,stepladder,0.767383089173,left,1,correct,decision,2,decision2,beaver
322,27,calc,0.950335712667,right,1,correct,arm2,1,arm21,beaver
323,27,tongue,0.25008248302,right,1,correct,arm2,2,arm22,beaver
324,27,beaver,0.450283038255,left,1,correct,arm2,3,arm23,beaver
325,28,arc,3.10065041596,space,1,correct,target,NaN,targetNaN,arc
326,28,trophy,2.56716744098,left,1,correct,path,1,path1,arc
327,28,astronaut,0.150241955213,right,1,correct,path,2,path2,arc
328,28,robot,0.183766435861,right,1,correct,path,3,path3,arc
329,28,watch,0.783625829848,left,1,correct,decision,1,decision1,arc
330,28,clover,1.63347050821,left,1,correct,arm1,1,arm11,arc
331,28,radio,0.25025152415,right,1,correct,arm1,2,arm12,arc
332,28,wing,0.367056236078,left,1,correct,arm1,3,arm13,arc
333,28,holly,0.616991713672,right,1,correct,decision,2,decision2,arc
334,28,match,1.23359221785,right,1,correct,arm2,1,arm21,arc
335,28,baby,0.483593198878,left,1,correct,arm2,2,arm22,arc
336,28,arc,0.733678398625,left,1,correct,arm2,3,arm23,arc
337,29,arc,3.01699769049,space,1,correct,target,NaN,targetNaN,arc
338,29,trophy,4.9668597861,left,1,correct,path,1,path1,arc
339,29,astronaut,0.15039318669,right,1,correct,path,2,path2,arc
340,29,robot,0.150261576084,right,1,correct,path,3,path3,arc
341,29,watch,0.333668195759,left,1,correct,decision,1,decision1,arc
342,29,clover,1.75056621237,left,1,correct,arm1,1,arm11,arc
343,29,radio,0.183650220075,right,1,correct,arm1,2,arm12,arc
344,29,wing,0.23365681569,left,1,correct,arm1,3,arm13,arc
345,29,holly,0.60029226006,right,1,correct,decision,2,decision2,arc
346,29,match,1.05009866267,right,1,correct,arm2,1,arm21,arc
347,29,baby,0.400349794421,left,1,correct,arm2,2,arm22,arc
348,29,arc,0.25023673306,left,1,correct,arm2,3,arm23,arc
349,30,beaver,1.30116279176,space,1,correct,target,NaN,targetNaN,beaver
350,30,trophy,4.01688871931,left,1,correct,path,1,path1,beaver
351,30,astronaut,0.116888628749,right,1,correct,path,2,path2,beaver
352,30,robot,0.200250663853,right,1,correct,path,3,path3,beaver
353,30,pigeon,3.11726504716,left,1,correct,decision,1,decision1,beaver
354,30,bus,1.2337660887,right,1,correct,arm1,1,arm11,beaver
355,30,deer,0.50037355072,left,1,correct,arm1,2,arm12,beaver
356,30,fist,0.216930496623,right,1,correct,arm1,3,arm13,beaver
357,30,stepladder,0.450314431626,left,1,correct,decision,2,decision2,beaver
358,30,calc,1.033708011,right,1,correct,arm2,1,arm21,beaver
359,30,tongue,0.383664226334,right,1,correct,arm2,2,arm22,beaver
360,30,beaver,0.234172391181,left,1,correct,arm2,3,arm23,beaver
361,31,arc,1.58362872768,space,1,correct,target,NaN,targetNaN,arc
362,31,trophy,1.83356843135,left,1,correct,path,1,path1,arc
363,31,astronaut,0.566883693333,right,1,correct,path,2,path2,arc
364,31,robot,0.366888704215,right,1,correct,path,3,path3,arc
365,31,watch,5.98348649166,right,1,correct,decision,1,decision1,arc
366,31,clover,3.16685809568,left,1,correct,arm1,1,arm11,arc
367,31,radio,0.266879135277,right,1,correct,arm1,2,arm12,arc
368,31,wing,0.200253682473,left,1,correct,arm1,3,arm13,arc
369,31,holly,4.01669492573,right,1,correct,decision,2,decision2,arc
370,31,match,3.06688565543,right,1,correct,arm2,1,arm21,arc
371,31,baby,0.416917033726,left,1,correct,arm2,2,arm22,arc
372,31,arc,0.350253848475,left,1,correct,arm2,3,arm23,arc
373,32,beaver,1.7337088864,space,-1,miss,target,NaN,targetNaN,beaver
374,32,trophy,1.18362244903,left,-1,miss,path,1,path1,beaver
375,32,astronaut,0.334015031985,right,-1,miss,path,2,path2,beaver
376,32,robot,0.666917109163,right,-1,miss,path,3,path3,beaver
377,32,pigeon,0.750309632072,right,-1,miss,decision,1,decision1,beaver
378,32,bus,0.850658188836,right,-1,miss,arm1,1,arm11,beaver
379,32,deer,0.200506942288,left,-1,miss,arm1,2,arm12,beaver
380,32,fist,0.216950721195,right,-1,miss,arm1,3,arm13,beaver
381,32,holly,0.350398137176,left,-1,miss,decision,2,decision2,beaver
382,32,match,0.517025008739,right,-1,miss,arm2,1,arm21,beaver
383,32,baby,0.46693238325,left,-1,miss,arm2,2,arm22,beaver
384,32,arc,0.216981510835,left,-1,miss,arm2,3,arm23,beaver
385,33,beaver,2.3503217668,space,1,correct,target,NaN,targetNaN,beaver
386,33,trophy,4.80021238813,left,1,correct,path,1,path1,beaver
387,33,astronaut,2.83355213093,right,1,correct,path,2,path2,beaver
388,33,robot,0.233645345026,right,1,correct,path,3,path3,beaver
389,33,pigeon,0.700311790337,left,1,correct,decision,1,decision1,beaver
390,33,bus,1.75046327838,right,1,correct,arm1,1,arm11,beaver
391,33,deer,0.283818868804,left,1,correct,arm1,2,arm12,beaver
392,33,fist,0.266720055486,right,1,correct,arm1,3,arm13,beaver
393,33,stepladder,2.81691546403,right,1,correct,decision,2,decision2,beaver
394,33,calc,2.56691599227,right,1,correct,arm2,1,arm21,beaver
395,33,tongue,0.400252595748,right,1,correct,arm2,2,arm22,beaver
396,33,beaver,0.566726122866,left,1,correct,arm2,3,arm23,beaver
397,34,arc,2.98358942562,space,1,correct,target,NaN,targetNaN,arc
398,34,trophy,4.90026180248,left,1,correct,path,1,path1,arc
399,34,astronaut,0.150182488986,right,1,correct,path,2,path2,arc
400,34,robot,0.733596292936,right,1,correct,path,3,path3,arc
401,34,watch,3.38354136967,left,1,correct,decision,1,decision1,arc
402,34,clover,4.26699957711,left,1,correct,arm1,1,arm11,arc
403,34,radio,0.200303489197,right,1,correct,arm1,2,arm12,arc
404,34,wing,0.200548900728,left,1,correct,arm1,3,arm13,arc
405,34,holly,1.86687164917,left,1,correct,decision,2,decision2,arc
406,34,match,1.11689376037,right,1,correct,arm2,1,arm21,arc
407,34,baby,0.450399857742,left,1,correct,arm2,2,arm22,arc
408,34,arc,0.350533370074,left,1,correct,arm2,3,arm23,arc
409,35,arc,2.16708781052,space,1,correct,target,NaN,targetNaN,arc
410,35,trophy,0.966911404015,left,1,correct,path,1,path1,arc
411,35,astronaut,0.150235012465,right,1,correct,path,2,path2,arc
412,35,robot,0.183551813971,right,1,correct,path,3,path3,arc
413,35,watch,0.383387723326,right,1,correct,decision,1,decision1,arc
414,35,clover,1.26699021945,left,1,correct,arm1,1,arm11,arc
415,35,radio,0.217675485095,right,1,correct,arm1,2,arm12,arc
416,35,wing,0.183649314509,left,1,correct,arm1,3,arm13,arc
417,35,holly,0.716928836395,left,1,correct,decision,2,decision2,arc
418,35,match,0.684144212602,right,1,correct,arm2,1,arm21,arc
419,35,baby,0.183663200034,left,1,correct,arm2,2,arm22,arc
420,35,arc,0.216910573916,left,1,correct,arm2,3,arm23,arc
421,36,beaver,3.3502686396,space,1,correct,target,NaN,targetNaN,beaver
422,36,trophy,0.616920776753,left,1,correct,path,1,path1,beaver
423,36,astronaut,0.183594979841,right,1,correct,path,2,path2,beaver
424,36,robot,0.183603733749,right,1,correct,path,3,path3,beaver
425,36,pigeon,0.400327154959,right,1,correct,decision,1,decision1,beaver
426,36,bus,0.617020390288,right,1,correct,arm1,1,arm11,beaver
427,36,deer,0.183597998432,left,1,correct,arm1,2,arm12,beaver
428,36,fist,0.233779974224,right,1,correct,arm1,3,arm13,beaver
429,36,stepladder,0.550308002013,right,1,correct,decision,2,decision2,beaver
430,36,calc,0.783638507943,right,1,correct,arm2,1,arm21,beaver
431,36,tongue,0.400277951936,right,1,correct,arm2,2,arm22,beaver
432,36,beaver,0.200378652167,left,1,correct,arm2,3,arm23,beaver
433,37,beaver,1.23447998567,space,1,correct,target,NaN,targetNaN,beaver
434,37,trophy,0.916901789809,left,1,correct,path,1,path1,beaver
435,37,astronaut,0.266945846146,right,1,correct,path,2,path2,beaver
436,37,robot,0.283559269912,right,1,correct,path,3,path3,beaver
437,37,pigeon,1.90032881522,right,1,correct,decision,1,decision1,beaver
438,37,bus,0.883606118441,right,1,correct,arm1,1,arm11,beaver
439,37,deer,0.166897941119,left,1,correct,arm1,2,arm12,beaver
440,37,fist,0.183598602132,right,1,correct,arm1,3,arm13,beaver
441,37,stepladder,0.733650325739,right,1,correct,decision,2,decision2,beaver
442,37,calc,0.766939959896,right,1,correct,arm2,1,arm21,beaver
443,37,tongue,0.51692750823,right,1,correct,arm2,2,arm22,beaver
444,37,beaver,0.45059365136,left,1,correct,arm2,3,arm23,beaver
445,38,beaver,1.16698034867,space,1,correct,target,NaN,targetNaN,beaver
446,38,trophy,1.1670386075,left,1,correct,path,1,path1,beaver
447,38,astronaut,0.166919674957,right,1,correct,path,2,path2,beaver
448,38,robot,0.216930798488,right,1,correct,path,3,path3,beaver
449,38,pigeon,0.566984514327,left,1,correct,decision,1,decision1,beaver
450,38,bus,0.46697494539,right,1,correct,arm1,1,arm11,beaver
451,38,deer,0.300279853633,left,1,correct,arm1,2,arm12,beaver
452,38,fist,0.250431734108,right,1,correct,arm1,3,arm13,beaver
453,38,stepladder,0.533637828747,left,1,correct,decision,2,decision2,beaver
454,38,calc,0.551236219006,right,1,correct,arm2,1,arm21,beaver
455,38,tongue,0.35004013218,right,1,correct,arm2,2,arm22,beaver
456,38,beaver,0.200243117375,left,1,correct,arm2,3,arm23,beaver
457,39,beaver,1.20029896134,space,1,correct,target,NaN,targetNaN,beaver
458,39,trophy,3.20031677102,left,1,correct,path,1,path1,beaver
459,39,astronaut,0.150232597574,right,1,correct,path,2,path2,beaver
460,39,robot,0.216916007397,right,1,correct,path,3,path3,beaver
461,39,pigeon,0.350362517784,right,1,correct,decision,1,decision1,beaver
462,39,bus,0.7336645131,right,1,correct,arm1,1,arm11,beaver
463,39,deer,0.333562545071,left,1,correct,arm1,2,arm12,beaver
464,39,fist,0.216945287713,right,1,correct,arm1,3,arm13,beaver
465,39,stepladder,0.583578619058,right,1,correct,decision,2,decision2,beaver
466,39,calc,0.750237487693,right,1,correct,arm2,1,arm21,beaver
467,39,tongue,0.51694109189,right,1,correct,arm2,2,arm22,beaver
468,39,beaver,1.08361620051,left,1,correct,arm2,3,arm23,beaver
469,40,beaver,3.06691885996,space,1,correct,target,NaN,targetNaN,beaver
470,40,trophy,0.533585908968,left,1,correct,path,1,path1,beaver
471,40,astronaut,0.266893624532,right,1,correct,path,2,path2,beaver
472,40,robot,0.283569533116,right,1,correct,path,3,path3,beaver
473,40,pigeon,3.71689985791,left,1,correct,decision,1,decision1,beaver
474,40,bus,0.450697189051,right,1,correct,arm1,1,arm11,beaver
475,40,deer,0.250275371043,left,1,correct,arm1,2,arm12,beaver
476,40,fist,0.183575358969,right,1,correct,arm1,3,arm13,beaver
477,40,stepladder,0.48364059077,right,1,correct,decision,2,decision2,beaver
478,40,calc,0.733742996497,right,1,correct,arm2,1,arm21,beaver
479,40,tongue,0.417078528379,right,1,correct,arm2,2,arm22,beaver
480,40,beaver,0.200361144322,left,1,correct,arm2,3,arm23,beaver
481,41,arc,0.967014338006,space,1,correct,target,NaN,targetNaN,arc
482,41,trophy,0.716916460166,left,1,correct,path,1,path1,arc
483,41,astronaut,0.166899148549,right,1,correct,path,2,path2,arc
484,41,robot,0.183569623652,right,1,correct,path,3,path3,arc
485,41,watch,0.400319004781,right,1,correct,decision,1,decision1,arc
486,41,clover,1.71691917689,left,1,correct,arm1,1,arm11,arc
487,41,radio,0.250269937591,right,1,correct,arm1,2,arm12,arc
488,41,wing,0.250365928805,left,1,correct,arm1,3,arm13,arc
489,41,holly,0.967056598311,right,1,correct,decision,2,decision2,arc
490,41,match,0.58364019834,right,1,correct,arm2,1,arm21,arc
491,41,baby,0.400230560044,left,1,correct,arm2,2,arm22,arc
492,41,arc,0.350198608241,left,1,correct,arm2,3,arm23,arc
493,42,arc,0.700285528612,space,1,correct,target,NaN,targetNaN,arc
494,42,trophy,0.717076445522,left,1,correct,path,1,path1,arc
495,42,astronaut,0.166971292871,right,1,correct,path,2,path2,arc
496,42,robot,0.400243539974,right,1,correct,path,3,path3,arc
497,42,watch,0.533616094879,left,1,correct,decision,1,decision1,arc
498,42,clover,0.900250935549,left,1,correct,arm1,1,arm11,arc
499,42,radio,0.217051844025,right,1,correct,arm1,2,arm12,arc
500,42,wing,0.21693442078,left,1,correct,arm1,3,arm13,arc
501,42,holly,0.600465829077,left,1,correct,decision,2,decision2,arc
502,42,match,0.550301361101,right,1,correct,arm2,1,arm21,arc
503,42,baby,0.300251177017,left,1,correct,arm2,2,arm22,arc
504,42,arc,0.283617830573,left,1,correct,arm2,3,arm23,arc
505,43,arc,1.05030453062,space,1,correct,target,NaN,targetNaN,arc
506,43,trophy,1.00024450594,left,1,correct,path,1,path1,arc
507,43,astronaut,0.166930843756,right,1,correct,path,2,path2,arc
508,43,robot,0.433603809215,right,1,correct,path,3,path3,arc
509,43,watch,2.10064196392,right,1,correct,decision,1,decision1,arc
510,43,clover,0.48358384124,left,1,correct,arm1,1,arm11,arc
511,43,radio,0.333655215829,right,1,correct,arm1,2,arm12,arc
512,43,wing,0.250243072078,left,1,correct,arm1,3,arm13,arc
513,43,holly,0.550319472677,left,1,correct,decision,2,decision2,arc
514,43,match,0.516929923091,right,1,correct,arm2,1,arm21,arc
515,43,baby,0.450392613158,left,1,correct,arm2,2,arm22,arc
516,43,arc,0.316905049898,left,1,correct,arm2,3,arm23,arc
517,44,arc,1.16694744601,space,1,correct,target,NaN,targetNaN,arc
518,44,trophy,0.633619022934,left,1,correct,path,1,path1,arc
519,44,astronaut,0.15025010542,right,1,correct,path,2,path2,arc
520,44,robot,0.233726847015,right,1,correct,path,3,path3,arc
521,44,watch,0.466954720818,right,1,correct,decision,1,decision1,arc
522,44,clover,0.866949226969,left,1,correct,arm1,1,arm11,arc
523,44,radio,0.366953000223,right,1,correct,arm1,2,arm12,arc
524,44,wing,0.216943174717,left,1,correct,arm1,3,arm13,arc
525,44,holly,0.717002791906,left,1,correct,decision,2,decision2,arc
526,44,match,0.433698592999,right,1,correct,arm2,1,arm21,arc
527,44,baby,0.483606480673,left,1,correct,arm2,2,arm22,arc
528,44,arc,0.533569306717,left,1,correct,arm2,3,arm23,arc
529,45,arc,0.98363470452,space,1,correct,target,NaN,targetNaN,arc
530,45,trophy,0.666956954607,left,1,correct,path,1,path1,arc
531,45,astronaut,0.217483804503,right,1,correct,path,2,path2,arc
532,45,robot,0.233548146382,right,1,correct,path,3,path3,arc
533,45,watch,1.65028798874,right,1,correct,decision,1,decision1,arc
534,45,clover,0.500266088871,left,1,correct,arm1,1,arm11,arc
535,45,radio,0.433590225555,right,1,correct,arm1,2,arm12,arc
536,45,wing,0.450320468808,left,1,correct,arm1,3,arm13,arc
537,45,holly,1.55028807931,right,1,correct,decision,2,decision2,arc
538,45,match,3.31689659783,right,1,correct,arm2,1,arm21,arc
539,45,baby,0.250232808903,left,1,correct,arm2,2,arm22,arc
540,45,arc,0.266925621603,left,1,correct,arm2,3,arm23,arc
541,46,arc,1.46696347473,space,1,correct,target,NaN,targetNaN,arc
542,46,trophy,0.550248837622,left,1,correct,path,1,path1,arc
543,46,astronaut,0.133783988946,right,1,correct,path,2,path2,arc
544,46,robot,0.216920535255,right,1,correct,path,3,path3,arc
545,46,watch,0.550345734431,right,1,correct,decision,1,decision1,arc
546,46,clover,0.633583101677,left,1,correct,arm1,1,arm11,arc
547,46,radio,0.350311201735,right,1,correct,arm1,2,arm12,arc
548,46,wing,0.20037110566,left,1,correct,arm1,3,arm13,arc
549,46,holly,0.466978567711,right,1,correct,decision,2,decision2,arc
550,46,match,0.900252142979,right,1,correct,arm2,1,arm21,arc
551,46,baby,0.583612729155,left,1,correct,arm2,2,arm22,arc
552,46,arc,0.400309043442,left,1,correct,arm2,3,arm23,arc
553,47,arc,1.10046386701,space,1,correct,target,NaN,targetNaN,arc
554,47,trophy,0.516919056157,left,1,correct,path,1,path1,arc
555,47,astronaut,0.133573593106,right,1,correct,path,2,path2,arc
556,47,robot,0.550378637039,right,1,correct,path,3,path3,arc
557,47,watch,0.550330641447,right,1,correct,decision,1,decision1,arc
558,47,clover,0.516951355094,left,1,correct,arm1,1,arm11,arc
559,47,radio,0.400810431544,right,1,correct,arm1,2,arm12,arc
560,47,wing,0.367871255847,left,1,correct,arm1,3,arm13,arc
561,47,holly,0.78361586848,left,1,correct,decision,2,decision2,arc
562,47,match,1.75026012716,right,1,correct,arm2,1,arm21,arc
563,47,baby,0.583561111242,left,1,correct,arm2,2,arm22,arc
564,47,arc,0.35025415034,left,1,correct,arm2,3,arm23,arc
565,48,beaver,1.11694235969,space,1,correct,target,NaN,targetNaN,beaver
566,48,trophy,0.533567495557,left,1,correct,path,1,path1,beaver
567,48,astronaut,0.383650038973,right,1,correct,path,2,path2,beaver
568,48,robot,0.250233714469,right,1,correct,path,3,path3,beaver
569,48,pigeon,0.53340871766,left,1,correct,decision,1,decision1,beaver
570,48,bus,0.733577577659,right,1,correct,arm1,1,arm11,beaver
571,48,deer,0.383570348145,left,1,correct,arm1,2,arm12,beaver
572,48,fist,0.216948004439,right,1,correct,arm1,3,arm13,beaver
573,48,stepladder,0.383636757178,right,1,correct,decision,2,decision2,beaver
574,48,calc,0.600259961124,right,1,correct,arm2,1,arm21,beaver
575,48,tongue,0.466917290265,right,1,correct,arm2,2,arm22,beaver
576,48,beaver,0.250232808903,left,1,correct,arm2,3,arm23,beaver
577,49,beaver,0.717174851627,space,1,correct,target,NaN,targetNaN,beaver
578,49,trophy,0.600260564854,left,1,correct,path,1,path1,beaver
579,49,astronaut,0.183591961249,right,1,correct,path,2,path2,beaver
580,49,robot,0.266914150969,right,1,correct,path,3,path3,beaver
581,49,pigeon,0.950451626617,left,1,correct,decision,1,decision1,beaver
582,49,bus,0.416946314042,right,1,correct,arm1,1,arm11,beaver
583,49,deer,0.233591010387,left,1,correct,arm1,2,arm12,beaver
584,49,fist,0.216963701125,right,1,correct,arm1,3,arm13,beaver
585,49,stepladder,0.78360409601,left,1,correct,decision,2,decision2,beaver
586,49,calc,0.566919312725,right,1,correct,arm2,1,arm21,beaver
587,49,tongue,0.283807700005,right,1,correct,arm2,2,arm22,beaver
588,49,beaver,0.2675963527,left,1,correct,arm2,3,arm23,beaver
589,50,beaver,1.03369714407,space,1,correct,target,NaN,targetNaN,beaver
590,50,trophy,0.500859845866,left,1,correct,path,1,path1,beaver
591,50,astronaut,0.150296289881,right,1,correct,path,2,path2,beaver
592,50,robot,0.216909366485,right,1,correct,path,3,path3,beaver
593,50,pigeon,0.917003818235,left,1,correct,decision,1,decision1,beaver
594,50,bus,0.683692329418,right,1,correct,arm1,1,arm11,beaver
595,50,deer,0.333584278938,left,1,correct,arm1,2,arm12,beaver
596,50,fist,0.333594542142,right,1,correct,arm1,3,arm13,beaver
597,50,stepladder,1.41695808654,right,1,correct,decision,2,decision2,beaver
598,50,calc,0.78365722319,right,1,correct,arm2,1,arm21,beaver
599,50,tongue,0.433685311204,right,1,correct,arm2,2,arm22,beaver
600,50,beaver,0.283580400021,left,1,correct,arm2,3,arm23,beaver
