pic_index,trial_num,pic_name,rt,resp,feedback_code,feedback,segment,segment_index,pic_type,trial_target
1,1,beaver,2.45018704701,space,-1,miss,target,NaN,targetNaN,beaver
2,1,trophy,7.00026623975,right,-1,miss,path,1,path1,beaver
3,1,astronaut,1.68377322773,right,-1,miss,path,2,path2,beaver
4,1,robot,1.8004273118,right,-1,miss,path,3,path3,beaver
5,1,pigeon,7.016831366,right,-1,miss,decision,1,decision1,beaver
6,1,bus,2.96689389623,left,-1,miss,arm1,1,arm11,beaver
7,1,deer,4.81690761563,left,-1,miss,arm1,2,arm12,beaver
8,1,fist,1.66695393599,right,-1,miss,arm1,3,arm13,beaver
9,1,holly,6.69993386266,right,-1,miss,decision,2,decision2,beaver
10,1,match,3.80025796895,right,-1,miss,arm2,1,arm21,beaver
11,1,baby,1.58360276779,left,-1,miss,arm2,2,arm22,beaver
12,1,arc,2.13365207647,left,-1,miss,arm2,3,arm23,beaver
13,2,arc,4.5002313751,space,0,wrong,target,NaN,targetNaN,arc
14,2,trophy,8.83348904236,right,0,wrong,path,1,path1,arc
15,2,astronaut,4.53330004832,right,0,wrong,path,2,path2,arc
16,2,robot,7.53362001909,right,0,wrong,path,3,path3,arc
17,2,pigeon,3.5669159923,right,0,wrong,decision,1,decision1,arc
18,2,bus,9.28343882808,left,0,wrong,arm1,1,arm11,arc
19,2,deer,1.33374577365,left,0,wrong,arm1,2,arm12,arc
20,2,fist,2.95043502445,right,0,wrong,arm1,3,arm13,arc
21,2,holly,4.9002590857,left,0,wrong,decision,2,decision2,arc
22,2,match,2.60026388534,right,0,wrong,arm2,1,arm21,arc
23,2,baby,1.53362454695,left,0,wrong,arm2,2,arm22,arc
24,2,arc,0.983620517189,left,0,wrong,arm2,3,arm23,arc
25,3,arc,1.21742071596,space,-1,miss,target,NaN,targetNaN,arc
26,3,trophy,1.40032413637,right,-1,miss,path,1,path1,arc
27,3,astronaut,0.98364949564,right,-1,miss,path,2,path2,arc
28,3,robot,1.53364205477,right,-1,miss,path,3,path3,arc
29,3,watch,1.3001986536,left,-1,miss,decision,1,decision1,arc
30,3,clover,6.93350585585,left,-1,miss,arm1,1,arm11,arc
31,3,radio,3.0004820691,right,-1,miss,arm1,2,arm12,arc
32,3,wing,1.88369184651,left,-1,miss,arm1,3,arm13,arc
33,3,stepladder,0.833715436747,left,-1,miss,decision,2,decision2,arc
34,3,calc,2.48388358741,right,-1,miss,arm2,1,arm21,arc
35,3,tongue,4.71706527669,right,-1,miss,arm2,2,arm22,arc
36,3,beaver,1.61695458507,left,-1,miss,arm2,3,arm23,arc
37,4,arc,7.78368499433,space,-1,miss,target,NaN,targetNaN,arc
38,4,trophy,1.98367847409,right,-1,miss,path,1,path1,arc
39,4,astronaut,1.56702798209,right,-1,miss,path,2,path2,arc
40,4,robot,2.41700910078,right,-1,miss,path,3,path3,arc
41,4,watch,1.66692918353,left,-1,miss,decision,1,decision1,arc
42,4,clover,2.01690411416,left,-1,miss,arm1,1,arm11,arc
43,4,radio,1.03375328984,right,-1,miss,arm1,2,arm12,arc
44,4,wing,0.933780547814,left,-1,miss,arm1,3,arm13,arc
45,4,stepladder,0.966928308131,right,-1,miss,decision,2,decision2,arc
46,4,calc,3.16680859076,right,-1,miss,arm2,1,arm21,arc
47,4,tongue,1.08379942912,right,-1,miss,arm2,2,arm22,arc
48,4,beaver,1.00029159593,left,-1,miss,arm2,3,arm23,arc
49,5,arc,2.16698849888,space,1,correct,target,NaN,targetNaN,arc
50,5,trophy,1.78358206037,right,1,correct,path,1,path1,arc
51,5,astronaut,0.833589863381,right,1,correct,path,2,path2,arc
52,5,robot,0.500321630971,right,1,correct,path,3,path3,arc
53,5,watch,0.533860902651,left,1,correct,decision,1,decision1,arc
54,5,clover,1.96689419809,left,1,correct,arm1,1,arm11,arc
55,5,radio,2.10022751126,right,1,correct,arm1,2,arm12,arc
56,5,wing,4.36690440087,left,1,correct,arm1,3,arm13,arc
57,5,holly,2.46689646202,right,1,correct,decision,2,decision2,arc
58,5,match,9.56677653326,right,1,correct,arm2,1,arm21,arc
59,5,baby,0.683745758492,left,1,correct,arm2,2,arm22,arc
60,5,arc,2.83360767306,left,1,correct,arm2,3,arm23,arc
61,6,arc,3.98358248291,space,0,wrong,target,NaN,targetNaN,arc
62,6,trophy,2.26743153762,right,0,wrong,path,1,path1,arc
63,6,astronaut,1.41692337277,right,0,wrong,path,2,path2,arc
64,6,robot,0.500307745417,right,0,wrong,path,3,path3,arc
65,6,pigeon,0.583825238049,left,0,wrong,decision,1,decision1,arc
66,6,bus,4.7002810007,left,0,wrong,arm1,1,arm11,arc
67,6,deer,1.23357923783,left,0,wrong,arm1,2,arm12,arc
68,6,fist,1.51694622345,right,0,wrong,arm1,3,arm13,arc
69,6,holly,1.28360062465,left,0,wrong,decision,2,decision2,arc
70,6,match,2.31698624999,right,0,wrong,arm2,1,arm21,arc
71,6,baby,0.866964018089,left,0,wrong,arm2,2,arm22,arc
72,6,arc,0.783610736951,left,0,wrong,arm2,3,arm23,arc
73,7,arc,0.567094391095,space,-1,miss,target,NaN,targetNaN,arc
74,7,trophy,2.96693011932,right,-1,miss,path,1,path1,arc
75,7,astronaut,0.41709030082,right,-1,miss,path,2,path2,arc
76,7,robot,0.250426904298,right,-1,miss,path,3,path3,arc
77,7,pigeon,0.46711198939,left,-1,miss,decision,1,decision1,arc
78,7,bus,0.700325072161,left,-1,miss,arm1,1,arm11,arc
79,7,deer,0.383592987549,left,-1,miss,arm1,2,arm12,arc
80,7,fist,0.80030687002,right,-1,miss,arm1,3,arm13,arc
81,7,stepladder,1.16731661977,right,-1,miss,decision,2,decision2,arc
82,7,calc,1.38363766274,right,-1,miss,arm2,1,arm21,arc
83,7,tongue,0.566962478682,right,-1,miss,arm2,2,arm22,arc
84,7,beaver,1.41695204936,left,-1,miss,arm2,3,arm23,arc
85,8,beaver,1.70030243276,space,-1,miss,target,NaN,targetNaN,beaver
86,8,trophy,6.05018740927,right,-1,miss,path,1,path1,beaver
87,8,astronaut,0.533595870249,right,-1,miss,path,2,path2,beaver
88,8,robot,0.550279023475,right,-1,miss,path,3,path3,beaver
89,8,pigeon,1.58387051697,left,-1,miss,decision,1,decision1,beaver
90,8,bus,4.11686780048,left,-1,miss,arm1,1,arm11,beaver
91,8,deer,0.733635534649,left,-1,miss,arm1,2,arm12,beaver
92,8,fist,0.483658702229,right,-1,miss,arm1,3,arm13,beaver
93,8,holly,4.23357923795,right,-1,miss,decision,2,decision2,beaver
94,8,match,5.21689789579,right,-1,miss,arm2,1,arm21,beaver
95,8,baby,1.08364366973,left,-1,miss,arm2,2,arm22,beaver
96,8,arc,1.61691413587,left,-1,miss,arm2,3,arm23,beaver
97,9,arc,1.60027112998,space,1,correct,target,NaN,targetNaN,arc
98,9,trophy,1.80024166848,right,1,correct,path,1,path1,arc
99,9,astronaut,0.583589184214,right,1,correct,path,2,path2,arc
100,9,robot,0.883597062784,right,1,correct,path,3,path3,arc
101,9,watch,1.3511705948,right,1,correct,decision,1,decision1,arc
102,9,clover,3.7000470598,left,1,correct,arm1,1,arm11,arc
103,9,radio,0.900248218793,right,1,correct,arm1,2,arm12,arc
104,9,wing,0.450246513239,left,1,correct,arm1,3,arm13,arc
105,9,holly,4.70024387201,right,1,correct,decision,2,decision2,arc
106,9,match,3.5502225759,right,1,correct,arm2,1,arm21,arc
107,9,baby,1.366908325,left,1,correct,arm2,2,arm22,arc
108,9,arc,1.65021916479,left,1,correct,arm2,3,arm23,arc
109,10,arc,1.18363874941,space,-1,miss,target,NaN,targetNaN,arc
110,10,trophy,2.31692074658,right,-1,miss,path,1,path1,arc
111,10,astronaut,0.73357818136,right,-1,miss,path,2,path2,arc
112,10,robot,0.48358323751,right,-1,miss,path,3,path3,arc
113,10,watch,3.00022518693,left,-1,miss,decision,1,decision1,arc
114,10,clover,4.8001885413,left,-1,miss,arm1,1,arm11,arc
115,10,radio,1.16691907123,right,-1,miss,arm1,2,arm12,arc
116,10,wing,0.783579041716,left,-1,miss,arm1,3,arm13,arc
117,10,stepladder,2.85022622836,right,-1,miss,decision,2,decision2,arc
118,10,calc,2.25023311074,right,-1,miss,arm2,1,arm21,arc
119,10,tongue,3.9503924622,right,-1,miss,arm2,2,arm22,arc
120,10,beaver,3.00023514824,left,-1,miss,arm2,3,arm23,arc
121,11,beaver,0.850240415777,space,1,correct,target,NaN,targetNaN,beaver
122,11,trophy,3.61699443031,right,1,correct,path,1,path1,beaver
123,11,astronaut,0.466890424839,right,1,correct,path,2,path2,beaver
124,11,robot,0.416910996544,right,1,correct,path,3,path3,beaver
125,11,pigeon,1.5669150867,right,1,correct,decision,1,decision1,beaver
126,11,bus,9.46679624473,left,1,correct,arm1,1,arm11,beaver
127,11,deer,0.750261636451,left,1,correct,arm1,2,arm12,beaver
128,11,fist,5.75023537467,right,1,correct,arm1,3,arm13,beaver
129,11,stepladder,1.91692473111,left,1,correct,decision,2,decision2,beaver
130,11,calc,3.63351850375,right,1,correct,arm2,1,arm21,beaver
131,11,tongue,8.23347811506,right,1,correct,arm2,2,arm22,beaver
132,11,beaver,0.733587237191,left,1,correct,arm2,3,arm23,beaver
133,12,arc,1.06693968817,space,1,correct,target,NaN,targetNaN,arc
134,12,trophy,2.36690077861,right,1,correct,path,1,path1,arc
135,12,astronaut,1.46693177952,right,1,correct,path,2,path2,arc
136,12,robot,0.666913185036,right,1,correct,path,3,path3,arc
137,12,watch,0.93377813301,left,1,correct,decision,1,decision1,arc
138,12,clover,1.83358624112,left,1,correct,arm1,1,arm11,arc
139,12,radio,2.0168953602,right,1,correct,arm1,2,arm12,arc
140,12,wing,0.666906845989,left,1,correct,arm1,3,arm13,arc
141,12,holly,0.833680722979,left,1,correct,decision,2,decision2,arc
142,12,match,3.40020309086,right,1,correct,arm2,1,arm21,arc
143,12,baby,0.733588444535,left,1,correct,arm2,2,arm22,arc
144,12,arc,2.41690103523,left,1,correct,arm2,3,arm23,arc
145,13,beaver,0.883556009852,space,-1,miss,target,NaN,targetNaN,beaver
146,13,trophy,2.16718168871,right,-1,miss,path,1,path1,beaver
147,13,astronaut,0.450243796571,right,-1,miss,path,2,path2,beaver
148,13,robot,0.350077260868,right,-1,miss,path,3,path3,beaver
149,13,pigeon,1.11706008483,left,-1,miss,decision,1,decision1,beaver
150,13,bus,2.38355887751,left,-1,miss,arm1,1,arm11,beaver
151,13,deer,0.966924383887,left,-1,miss,arm1,2,arm12,beaver
152,13,fist,2.08356639382,right,-1,miss,arm1,3,arm13,beaver
153,13,holly,1.1002893924,right,-1,miss,decision,2,decision2,beaver
154,13,match,2.80025978002,right,-1,miss,arm2,1,arm21,beaver
155,13,baby,1.03360115283,left,-1,miss,arm2,2,arm22,beaver
156,13,arc,1.15021629725,left,-1,miss,arm2,3,arm23,beaver
157,14,arc,3.06670423807,space,0,wrong,target,NaN,targetNaN,arc
158,14,trophy,4.73352897831,right,0,wrong,path,1,path1,arc
159,14,astronaut,0.667040871456,right,0,wrong,path,2,path2,arc
160,14,robot,0.583565337234,right,0,wrong,path,3,path3,arc
161,14,pigeon,0.983590633143,right,0,wrong,decision,1,decision1,arc
162,14,bus,2.23360066989,left,0,wrong,arm1,1,arm11,arc
163,14,deer,1.93354992743,left,0,wrong,arm1,2,arm12,arc
164,14,fist,0.533588323742,right,0,wrong,arm1,3,arm13,arc
165,14,holly,1.25027386181,right,0,wrong,decision,2,decision2,arc
166,14,match,3.46690823452,right,0,wrong,arm2,1,arm21,arc
167,14,baby,0.483683756553,left,0,wrong,arm2,2,arm22,arc
168,14,arc,0.666910770233,left,0,wrong,arm2,3,arm23,arc
169,15,beaver,4.70020070614,space,1,correct,target,NaN,targetNaN,beaver
170,15,trophy,5.9169962717,right,1,correct,path,1,path1,beaver
171,15,astronaut,1.90020082693,right,1,correct,path,2,path2,beaver
172,15,robot,0.566906332853,right,1,correct,path,3,path3,beaver
173,15,pigeon,1.08384259499,left,1,correct,decision,1,decision1,beaver
174,15,bus,1.65028436645,left,1,correct,arm1,1,arm11,beaver
175,15,deer,1.6333624426,left,1,correct,arm1,2,arm12,beaver
176,15,fist,0.467297330964,right,1,correct,arm1,3,arm13,beaver
177,15,stepladder,0.91675448243,left,1,correct,decision,2,decision2,beaver
178,15,calc,1.6670034409,right,1,correct,arm2,1,arm21,beaver
179,15,tongue,1.50025401451,right,1,correct,arm2,2,arm22,beaver
180,15,beaver,3.23334197653,left,1,correct,arm2,3,arm23,beaver
181,16,arc,2.85034395335,space,1,correct,target,NaN,targetNaN,arc
182,16,trophy,3.86663921759,right,1,correct,path,1,path1,arc
183,16,astronaut,0.716917667538,right,1,correct,path,2,path2,arc
184,16,robot,0.350304560852,right,1,correct,path,3,path3,arc
185,16,watch,1.38364490727,right,1,correct,decision,1,decision1,arc
186,16,clover,2.55025336542,left,1,correct,arm1,1,arm11,arc
187,16,radio,3.00024239288,right,1,correct,arm1,2,arm12,arc
188,16,wing,0.933632334811,left,1,correct,arm1,3,arm13,arc
189,16,holly,1.16701596801,left,1,correct,decision,2,decision2,arc
190,16,match,2.55028807931,right,1,correct,arm2,1,arm21,arc
191,16,baby,1.08358692017,left,1,correct,arm2,2,arm22,arc
192,16,arc,0.550262723234,left,1,correct,arm2,3,arm23,arc
193,17,beaver,1.90054343711,space,0,wrong,target,NaN,targetNaN,beaver
194,17,trophy,3.11690764583,right,0,wrong,path,1,path1,beaver
195,17,astronaut,1.13356453739,right,0,wrong,path,2,path2,beaver
196,17,robot,0.400255916175,right,0,wrong,path,3,path3,beaver
197,17,watch,1.00024993939,right,0,wrong,decision,1,decision1,beaver
198,17,clover,2.1502368236,left,0,wrong,arm1,1,arm11,beaver
199,17,radio,1.30025449744,right,0,wrong,arm1,2,arm12,beaver
200,17,wing,3.01668798295,left,0,wrong,arm1,3,arm13,beaver
201,17,stepladder,1.25025756133,left,0,wrong,decision,2,decision2,beaver
202,17,calc,6.31669495581,right,0,wrong,arm2,1,arm21,beaver
203,17,tongue,0.583564733621,right,0,wrong,arm2,2,arm22,beaver
204,17,beaver,0.534247584292,left,0,wrong,arm2,3,arm23,beaver
205,18,beaver,1.23356927652,space,0,wrong,target,NaN,targetNaN,beaver
206,18,trophy,3.10029693891,right,0,wrong,path,1,path1,beaver
207,18,astronaut,0.583591900766,right,0,wrong,path,2,path2,beaver
208,18,robot,0.450232929667,right,0,wrong,path,3,path3,beaver
209,18,watch,3.76689528476,right,0,wrong,decision,1,decision1,beaver
210,18,clover,4.8168608275,left,0,wrong,arm1,1,arm11,beaver
211,18,radio,1.11690824968,right,0,wrong,arm1,2,arm12,beaver
212,18,wing,0.566951913643,left,0,wrong,arm1,3,arm13,beaver
213,18,stepladder,2.73357908695,left,0,wrong,decision,2,decision2,beaver
214,18,calc,3.53352342418,right,0,wrong,arm2,1,arm21,beaver
215,18,tongue,0.566903314204,right,0,wrong,arm2,2,arm22,beaver
216,18,beaver,0.534221322509,left,0,wrong,arm2,3,arm23,beaver
217,19,arc,1.1503008178,space,1,correct,target,NaN,targetNaN,arc
218,19,trophy,1.15031711815,right,1,correct,path,1,path1,arc
219,19,astronaut,0.450679379399,right,1,correct,path,2,path2,arc
220,19,robot,1.01691256627,right,1,correct,path,3,path3,arc
221,19,watch,0.683627731516,right,1,correct,decision,1,decision1,arc
222,19,clover,3.53422041691,left,1,correct,arm1,1,arm11,arc
223,19,radio,0.933585244929,right,1,correct,arm1,2,arm12,arc
224,19,wing,0.333640424768,left,1,correct,arm1,3,arm13,arc
225,19,holly,4.9835109422,left,1,correct,decision,2,decision2,arc
226,19,match,2.31694489531,right,1,correct,arm2,1,arm21,arc
227,19,baby,0.616915645078,left,1,correct,arm2,2,arm22,arc
228,19,arc,1.23358527501,left,1,correct,arm2,3,arm23,arc
229,20,arc,1.11692364444,space,0,wrong,target,NaN,targetNaN,arc
230,20,trophy,1.73357304977,right,0,wrong,path,1,path1,arc
231,20,astronaut,0.517013538047,right,0,wrong,path,2,path2,arc
232,20,robot,0.416929409956,right,0,wrong,path,3,path3,arc
233,20,pigeon,2.15032557026,right,0,wrong,decision,1,decision1,arc
234,20,bus,3.43359656469,left,0,wrong,arm1,1,arm11,arc
235,20,deer,2.96689842409,left,0,wrong,arm1,2,arm12,arc
236,20,fist,1.23365923052,right,0,wrong,arm1,3,arm13,arc
237,20,holly,1.65093970275,left,0,wrong,decision,2,decision2,arc
238,20,match,2.20025881403,right,0,wrong,arm2,1,arm21,arc
239,20,baby,0.58355326287,left,0,wrong,arm2,2,arm22,arc
240,20,arc,0.633596685366,left,0,wrong,arm2,3,arm23,arc
241,21,arc,1.1836061487,space,1,correct,target,NaN,targetNaN,arc
242,21,trophy,1.3669025898,right,1,correct,path,1,path1,arc
243,21,astronaut,0.366933983052,right,1,correct,path,2,path2,arc
244,21,robot,0.217072370462,right,1,correct,path,3,path3,arc
245,21,watch,0.533741668332,right,1,correct,decision,1,decision1,arc
246,21,clover,1.71696717257,left,1,correct,arm1,1,arm11,arc
247,21,radio,0.60024969792,right,1,correct,arm1,2,arm12,arc
248,21,wing,0.483578709653,left,1,correct,arm1,3,arm13,arc
249,21,holly,0.583680949407,left,1,correct,decision,2,decision2,arc
250,21,match,1.36698348797,right,1,correct,arm2,1,arm21,arc
251,21,baby,0.666911071981,left,1,correct,arm2,2,arm22,arc
252,21,arc,1.58357107255,left,1,correct,arm2,3,arm23,arc
253,22,arc,0.916944955592,space,1,correct,target,NaN,targetNaN,arc
254,22,trophy,3.53356176021,right,1,correct,path,1,path1,arc
255,22,astronaut,0.466937213088,right,1,correct,path,2,path2,arc
256,22,robot,0.433709761826,right,1,correct,path,3,path3,arc
257,22,watch,0.767619143007,left,1,correct,decision,1,decision1,arc
258,22,clover,3.16666430212,left,1,correct,arm1,1,arm11,arc
259,22,radio,1.26693558297,right,1,correct,arm1,2,arm12,arc
260,22,wing,0.550366864656,left,1,correct,arm1,3,arm13,arc
261,22,holly,1.05032234034,right,1,correct,decision,2,decision2,arc
262,22,match,8.28346418426,right,1,correct,arm2,1,arm21,arc
263,22,baby,0.516912415274,left,1,correct,arm2,2,arm22,arc
264,22,arc,0.900230710977,left,1,correct,arm2,3,arm23,arc
265,23,beaver,5.06663179188,space,-1,miss,target,NaN,targetNaN,beaver
266,23,trophy,6.63361057092,right,-1,miss,path,1,path1,beaver
267,23,astronaut,2.80028362689,right,-1,miss,path,2,path2,beaver
268,23,robot,0.617154415813,right,-1,miss,path,3,path3,beaver
269,23,pigeon,3.93339628098,right,-1,miss,decision,1,decision1,beaver
270,23,bus,1.83362397342,left,-1,miss,arm1,1,arm11,beaver
271,23,deer,0.850254905061,left,-1,miss,arm1,2,arm12,beaver
272,23,fist,1.26690237841,right,-1,miss,arm1,3,arm13,beaver
273,23,holly,1.18366863357,left,-1,miss,decision,2,decision2,beaver
274,23,match,5.81684603647,right,-1,miss,arm2,1,arm21,beaver
275,23,baby,0.716905593174,left,-1,miss,arm2,2,arm22,beaver
276,23,arc,1.9169265423,left,-1,miss,arm2,3,arm23,beaver
277,24,beaver,1.88360581652,space,-1,miss,target,NaN,targetNaN,beaver
278,24,trophy,2.43359354592,right,-1,miss,path,1,path1,beaver
279,24,astronaut,1.7170055086,right,-1,miss,path,2,path2,beaver
280,24,robot,0.283625377109,right,-1,miss,path,3,path3,beaver
281,24,pigeon,2.06691070972,right,-1,miss,decision,1,decision1,beaver
282,24,bus,1.43359294231,left,-1,miss,arm1,1,arm11,beaver
283,24,deer,2.25024337391,left,-1,miss,arm1,2,arm12,beaver
284,24,fist,1.13359079906,right,-1,miss,arm1,3,arm13,beaver
285,24,holly,0.850292637362,right,-1,miss,decision,2,decision2,beaver
286,24,match,3.36700310884,right,-1,miss,arm2,1,arm21,beaver
287,24,baby,0.666714259889,left,-1,miss,arm2,2,arm22,beaver
288,24,arc,0.566914482974,left,-1,miss,arm2,3,arm23,beaver
289,25,arc,1.20024009875,space,1,correct,target,NaN,targetNaN,arc
290,25,trophy,1.18380265892,right,1,correct,path,1,path1,arc
291,25,astronaut,1.71699494356,right,1,correct,path,2,path2,arc
292,25,robot,0.316943084239,right,1,correct,path,3,path3,arc
293,25,watch,0.683626524056,left,1,correct,decision,1,decision1,arc
294,25,clover,2.36697594146,left,1,correct,arm1,1,arm11,arc
295,25,radio,1.06691855809,right,1,correct,arm1,2,arm12,arc
296,25,wing,1.43378915079,left,1,correct,arm1,3,arm13,arc
297,25,holly,0.866947717732,left,1,correct,decision,2,decision2,arc
298,25,match,2.91687311325,right,1,correct,arm2,1,arm21,arc
299,25,baby,1.58332747221,left,1,correct,arm2,2,arm22,arc
300,25,arc,0.983869249118,left,1,correct,arm2,3,arm23,arc
301,26,arc,1.90024670947,space,1,correct,target,NaN,targetNaN,arc
302,26,trophy,1.21692506317,right,1,correct,path,1,path1,arc
303,26,astronaut,0.183660785202,right,1,correct,path,2,path2,arc
304,26,robot,0.150251916493,right,1,correct,path,3,path3,arc
305,26,watch,1.51696222194,left,1,correct,decision,1,decision1,arc
306,26,clover,1.90023372963,left,1,correct,arm1,1,arm11,arc
307,26,radio,5.23359101044,right,1,correct,arm1,2,arm12,arc
308,26,wing,0.733615611913,left,1,correct,arm1,3,arm13,arc
309,26,holly,1.08361589874,right,1,correct,decision,2,decision2,arc
310,26,match,2.83359076898,right,1,correct,arm2,1,arm21,arc
311,26,baby,1.35001628532,left,1,correct,arm2,2,arm22,arc
312,26,arc,3.80020212498,left,1,correct,arm2,3,arm23,arc
313,27,arc,5.100286072,space,-1,miss,target,NaN,targetNaN,arc
314,27,trophy,6.08350753121,right,-1,miss,path,1,path1,arc
315,27,astronaut,0.450267039705,right,-1,miss,path,2,path2,arc
316,27,robot,0.383565820171,right,-1,miss,path,3,path3,arc
317,27,pigeon,0.76704470499,left,-1,miss,decision,1,decision1,arc
318,27,bus,1.48369975516,left,-1,miss,arm1,1,arm11,arc
319,27,deer,0.933584339335,left,-1,miss,arm1,2,arm12,arc
320,27,fist,0.50046290108,right,-1,miss,arm1,3,arm13,arc
321,27,stepladder,1.40026014217,left,-1,miss,decision,2,decision2,arc
322,27,calc,8.30015005427,right,-1,miss,arm2,1,arm21,arc
323,27,tongue,0.616884553689,right,-1,miss,arm2,2,arm22,arc
324,27,beaver,0.916922618169,left,-1,miss,arm2,3,arm23,arc
325,28,arc,0.517062137485,space,0,wrong,target,NaN,targetNaN,arc
326,28,trophy,1.83358412795,right,0,wrong,path,1,path1,arc
327,28,astronaut,0.500209037564,right,0,wrong,path,2,path2,arc
328,28,robot,0.500220508082,right,0,wrong,path,3,path3,arc
329,28,pigeon,2.15027455601,right,0,wrong,decision,1,decision1,arc
330,28,bus,1.25030434958,left,0,wrong,arm1,1,arm11,arc
331,28,deer,1.36692221055,left,0,wrong,arm1,2,arm12,arc
332,28,fist,1.20024523034,right,0,wrong,arm1,3,arm13,arc
333,28,holly,1.18363874941,left,0,wrong,decision,2,decision2,arc
334,28,match,1.48359259509,right,0,wrong,arm2,1,arm21,arc
335,28,baby,0.950239419588,left,0,wrong,arm2,2,arm22,arc
336,28,arc,0.684095009579,left,0,wrong,arm2,3,arm23,arc
337,29,beaver,1.11695352849,space,-1,miss,target,NaN,targetNaN,beaver
338,29,trophy,2.45024138165,right,-1,miss,path,1,path1,beaver
339,29,astronaut,0.316931613488,right,-1,miss,path,2,path2,beaver
340,29,robot,0.20024040062,right,-1,miss,path,3,path3,beaver
341,29,pigeon,0.0502384235151,right,-1,miss,decision,1,decision1,beaver
342,29,bus,1.03358485247,left,-1,miss,arm1,1,arm11,beaver
343,29,deer,0.983609348303,left,-1,miss,arm1,2,arm12,beaver
344,29,fist,0.616926512099,right,-1,miss,arm1,3,arm13,beaver
345,29,holly,0.966794886393,right,-1,miss,decision,2,decision2,beaver
346,29,match,2.30019925721,right,-1,miss,arm2,1,arm21,beaver
347,29,baby,0.716934571741,left,-1,miss,arm2,2,arm22,beaver
348,29,arc,0.300249365973,left,-1,miss,arm2,3,arm23,beaver
349,30,beaver,1.01710152999,space,-1,miss,target,NaN,targetNaN,beaver
350,30,trophy,2.43356637866,right,-1,miss,path,1,path1,beaver
351,30,astronaut,0.450792878401,right,-1,miss,path,2,path2,beaver
352,30,robot,0.317210531444,right,-1,miss,path,3,path3,beaver
353,30,pigeon,4.91691205301,left,-1,miss,decision,1,decision1,beaver
354,30,bus,3.05019616324,left,-1,miss,arm1,1,arm11,beaver
355,30,deer,1.03357247624,left,-1,miss,arm1,2,arm12,beaver
356,30,fist,2.7835757212,right,-1,miss,arm1,3,arm13,beaver
357,30,holly,1.06694421615,right,-1,miss,decision,2,decision2,beaver
358,30,match,2.00022186653,right,-1,miss,arm2,1,arm21,beaver
359,30,baby,0.700409592711,left,-1,miss,arm2,2,arm22,beaver
360,30,arc,0.750251675141,left,-1,miss,arm2,3,arm23,beaver
361,31,beaver,4.08355522505,space,1,correct,target,NaN,targetNaN,beaver
362,31,trophy,4.01687634317,right,1,correct,path,1,path1,beaver
363,31,astronaut,4.01687121147,right,1,correct,path,2,path2,beaver
364,31,robot,0.400261953473,right,1,correct,path,3,path3,beaver
365,31,pigeon,3.13360559021,left,1,correct,decision,1,decision1,beaver
366,31,bus,3.28353542311,left,1,correct,arm1,1,arm11,beaver
367,31,deer,1.81690791762,left,1,correct,arm1,2,arm12,beaver
368,31,fist,1.21690514043,right,1,correct,arm1,3,arm13,beaver
369,31,stepladder,1.01696961757,right,1,correct,decision,2,decision2,beaver
370,31,calc,2.30023819709,right,1,correct,arm2,1,arm21,beaver
371,31,tongue,0.833399088355,right,1,correct,arm2,2,arm22,beaver
372,31,beaver,1.90023584256,left,1,correct,arm2,3,arm23,beaver
373,32,arc,1.10025316919,space,0,wrong,target,NaN,targetNaN,arc
374,32,trophy,7.31681901996,right,0,wrong,path,1,path1,arc
375,32,astronaut,0.533635715721,right,0,wrong,path,2,path2,arc
376,32,robot,0.333623218699,right,0,wrong,path,3,path3,arc
377,32,pigeon,3.11692273885,left,0,wrong,decision,1,decision1,arc
378,32,bus,3.65023455967,left,0,wrong,arm1,1,arm11,arc
379,32,deer,1.30026144022,left,0,wrong,arm1,2,arm12,arc
380,32,fist,0.316910785157,right,0,wrong,arm1,3,arm13,arc
381,32,holly,0.91698329174,left,0,wrong,decision,2,decision2,arc
382,32,match,1.75024382677,right,0,wrong,arm2,1,arm21,arc
383,32,baby,1.51689158706,left,0,wrong,arm2,2,arm22,arc
384,32,arc,1.01695120416,left,0,wrong,arm2,3,arm23,arc
385,33,beaver,5.05022634915,space,-1,miss,target,NaN,targetNaN,beaver
386,33,trophy,1.33359756076,right,-1,miss,path,1,path1,beaver
387,33,astronaut,0.183574151481,right,-1,miss,path,2,path2,beaver
388,33,robot,0.216909668408,right,-1,miss,path,3,path3,beaver
389,33,pigeon,2.40027825383,right,-1,miss,decision,1,decision1,beaver
390,33,bus,0.983596368344,left,-1,miss,arm1,1,arm11,beaver
391,33,deer,1.30025751609,left,-1,miss,arm1,2,arm12,beaver
392,33,fist,0.366909532575,right,-1,miss,arm1,3,arm13,beaver
393,33,holly,0.583600051003,left,-1,miss,decision,2,decision2,beaver
394,33,match,2.83357265731,right,-1,miss,arm2,1,arm21,beaver
395,33,baby,0.783603492309,left,-1,miss,arm2,2,arm22,beaver
396,33,arc,0.317032132647,left,-1,miss,arm2,3,arm23,beaver
397,34,beaver,1.06691644504,space,1,correct,target,NaN,targetNaN,beaver
398,34,trophy,6.30017088249,right,1,correct,path,1,path1,beaver
399,34,astronaut,1.05028249486,right,1,correct,path,2,path2,beaver
400,34,robot,0.266909321188,right,1,correct,path,3,path3,beaver
401,34,pigeon,0.0669330473756,right,1,correct,decision,1,decision1,beaver
402,34,bus,3.36686183873,left,1,correct,arm1,1,arm11,beaver
403,34,deer,0.733615310048,left,1,correct,arm1,2,arm12,beaver
404,34,fist,0.30023487669,right,1,correct,arm1,3,arm13,beaver
405,34,stepladder,0.767108095461,left,1,correct,decision,2,decision2,beaver
406,34,calc,2.46702173352,right,1,correct,arm2,1,arm21,beaver
407,34,tongue,2.80020967138,right,1,correct,arm2,2,arm22,beaver
408,34,beaver,3.01694577071,left,1,correct,arm2,3,arm23,beaver
409,35,beaver,2.55020838848,space,-1,miss,target,NaN,targetNaN,beaver
410,35,trophy,2.81690520083,right,-1,miss,path,1,path1,beaver
411,35,astronaut,0.300253289985,right,-1,miss,path,2,path2,beaver
412,35,robot,0.333651895402,right,-1,miss,path,3,path3,beaver
413,35,watch,1.76694901567,left,-1,miss,decision,1,decision1,beaver
414,35,clover,4.06689501309,left,-1,miss,arm1,1,arm11,beaver
415,35,radio,0.883591327351,right,-1,miss,arm1,2,arm12,beaver
416,35,wing,0.566920822137,left,-1,miss,arm1,3,arm13,beaver
417,35,holly,0.733713112422,left,-1,miss,decision,2,decision2,beaver
418,35,match,1.3002481584,right,-1,miss,arm2,1,arm21,beaver
419,35,baby,0.750640167855,left,-1,miss,arm2,2,arm22,beaver
420,35,arc,0.566956139635,left,-1,miss,arm2,3,arm23,beaver
421,36,beaver,0.800240159151,space,-1,miss,target,NaN,targetNaN,beaver
422,36,trophy,3.68381609174,right,-1,miss,path,1,path1,beaver
423,36,astronaut,1.00024692074,right,-1,miss,path,2,path2,beaver
424,36,robot,0.366902287817,right,-1,miss,path,3,path3,beaver
425,36,pigeon,1.05024597002,left,-1,miss,decision,1,decision1,beaver
426,36,bus,4.96686280472,left,-1,miss,arm1,1,arm11,beaver
427,36,deer,0.666919523966,left,-1,miss,arm1,2,arm12,beaver
428,36,fist,0.350228492287,right,-1,miss,arm1,3,arm13,beaver
429,36,holly,1.03361413279,right,-1,miss,decision,2,decision2,beaver
430,36,match,2.15023440879,right,-1,miss,arm2,1,arm21,beaver
431,36,baby,1.10031263554,left,-1,miss,arm2,2,arm22,beaver
432,36,arc,0.267808861565,left,-1,miss,arm2,3,arm23,beaver
433,37,arc,0.7169593242,space,0,wrong,target,NaN,targetNaN,arc
434,37,trophy,1.83359258005,right,0,wrong,path,1,path1,arc
435,37,astronaut,0.216905744164,right,0,wrong,path,2,path2,arc
436,37,robot,0.100241698674,right,0,wrong,path,3,path3,arc
437,37,pigeon,1.60031852184,right,0,wrong,decision,1,decision1,arc
438,37,bus,1.1500264277,left,0,wrong,arm1,1,arm11,arc
439,37,deer,0.366901684087,left,0,wrong,arm1,2,arm12,arc
440,37,fist,0.850229850737,right,0,wrong,arm1,3,arm13,arc
441,37,holly,0.583644726197,left,0,wrong,decision,2,decision2,arc
442,37,match,2.90032972081,right,0,wrong,arm2,1,arm21,arc
443,37,baby,1.86672524747,left,0,wrong,arm2,2,arm22,arc
444,37,arc,0.316988966661,left,0,wrong,arm2,3,arm23,arc
445,38,arc,1.08359507041,space,1,correct,target,NaN,targetNaN,arc
446,38,trophy,3.16688767786,right,1,correct,path,1,path1,arc
447,38,astronaut,0.28356983501,right,1,correct,path,2,path2,arc
448,38,robot,0.233567767194,right,1,correct,path,3,path3,arc
449,38,watch,2.61688153504,left,1,correct,decision,1,decision1,arc
450,38,clover,4.28353240446,left,1,correct,arm1,1,arm11,arc
451,38,radio,1.30024664919,right,1,correct,arm1,2,arm12,arc
452,38,wing,5.46690914012,left,1,correct,arm1,3,arm13,arc
453,38,holly,0.766679153545,left,1,correct,decision,2,decision2,arc
454,38,match,1.18353098561,right,1,correct,arm2,1,arm21,arc
455,38,baby,0.950060115312,left,1,correct,arm2,2,arm22,arc
456,38,arc,0.65028014034,left,1,correct,arm2,3,arm23,arc
457,39,beaver,2.76691218885,space,0,wrong,target,NaN,targetNaN,beaver
458,39,trophy,3.70020312106,right,0,wrong,path,1,path1,beaver
459,39,astronaut,0.450297225616,right,0,wrong,path,2,path2,beaver
460,39,robot,0.400308439624,right,0,wrong,path,3,path3,beaver
461,39,watch,2.30031366192,left,0,wrong,decision,1,decision1,beaver
462,39,clover,4.06685637508,left,0,wrong,arm1,1,arm11,beaver
463,39,radio,0.816965270787,right,0,wrong,arm1,2,arm12,beaver
464,39,wing,0.48357508739,left,0,wrong,arm1,3,arm13,beaver
465,39,stepladder,1.50070861436,right,0,wrong,decision,2,decision2,beaver
466,39,calc,3.73354075081,right,0,wrong,arm2,1,arm21,beaver
467,39,tongue,1.1669142415,right,0,wrong,arm2,2,arm22,beaver
468,39,beaver,0.967084671138,left,0,wrong,arm2,3,arm23,beaver
469,40,arc,1.21689427353,space,0,wrong,target,NaN,targetNaN,arc
470,40,trophy,2.41669275227,right,0,wrong,path,1,path1,arc
471,40,astronaut,0.350286147441,right,0,wrong,path,2,path2,arc
472,40,robot,0.466924836743,right,0,wrong,path,3,path3,arc
473,40,pigeon,0.633654340403,left,0,wrong,decision,1,decision1,arc
474,40,bus,3.83387602575,left,0,wrong,arm1,1,arm11,arc
475,40,deer,0.733575162827,left,0,wrong,arm1,2,arm12,arc
476,40,fist,0.433595357114,right,0,wrong,arm1,3,arm13,arc
477,40,holly,0.850278751925,right,0,wrong,decision,2,decision2,arc
478,40,match,1.6002270584,right,0,wrong,arm2,1,arm21,arc
479,40,baby,1.43437113531,left,0,wrong,arm2,2,arm22,arc
480,40,arc,0.550276608672,left,0,wrong,arm2,3,arm23,arc
481,41,beaver,6.01685581659,space,0,wrong,target,NaN,targetNaN,beaver
482,41,trophy,8.28347867355,right,0,wrong,path,1,path1,beaver
483,41,astronaut,0.516931734164,right,0,wrong,path,2,path2,beaver
484,41,robot,0.383571555605,right,0,wrong,path,3,path3,beaver
485,41,watch,2.93361603457,left,0,wrong,decision,1,decision1,beaver
486,41,clover,2.31689388107,left,0,wrong,arm1,1,arm11,beaver
487,41,radio,2.88354333176,right,0,wrong,arm1,2,arm12,beaver
488,41,wing,1.85023588792,left,0,wrong,arm1,3,arm13,beaver
489,41,stepladder,1.20027239772,left,0,wrong,decision,2,decision2,beaver
490,41,calc,3.86697096075,right,0,wrong,arm2,1,arm21,beaver
491,41,tongue,1.63359396858,right,0,wrong,arm2,2,arm22,beaver
492,41,beaver,0.650239691255,left,0,wrong,arm2,3,arm23,beaver
493,42,beaver,4.88364324719,space,-1,miss,target,NaN,targetNaN,beaver
494,42,trophy,4.50042788533,right,-1,miss,path,1,path1,beaver
495,42,astronaut,0.783587795566,right,-1,miss,path,2,path2,beaver
496,42,robot,0.466907630791,right,-1,miss,path,3,path3,beaver
497,42,pigeon,2.45082910149,right,-1,miss,decision,1,decision1,beaver
498,42,bus,10.3500839017,left,-1,miss,arm1,1,arm11,beaver
499,42,deer,0.950305828592,left,-1,miss,arm1,2,arm12,beaver
500,42,fist,0.950280472403,right,-1,miss,arm1,3,arm13,beaver
501,42,holly,0.58363144449,left,-1,miss,decision,2,decision2,beaver
502,42,match,1.96689872595,right,-1,miss,arm2,1,arm21,beaver
503,42,baby,0.850273016491,left,-1,miss,arm2,2,arm22,beaver
504,42,arc,0.616949755349,left,-1,miss,arm2,3,arm23,beaver
505,43,beaver,2.38359691168,space,1,correct,target,NaN,targetNaN,beaver
506,43,trophy,2.56689878635,right,1,correct,path,1,path1,beaver
507,43,astronaut,0.233586784336,right,1,correct,path,2,path2,beaver
508,43,robot,0.233572295052,right,1,correct,path,3,path3,beaver
509,43,pigeon,2.18364840897,right,1,correct,decision,1,decision1,beaver
510,43,bus,1.68357339688,left,1,correct,arm1,1,arm11,beaver
511,43,deer,1.25023914804,left,1,correct,arm1,2,arm12,beaver
512,43,fist,0.566754799453,right,1,correct,arm1,3,arm13,beaver
513,43,stepladder,3.15024165343,left,1,correct,decision,2,decision2,beaver
514,43,calc,4.08427032945,right,1,correct,arm2,1,arm21,beaver
515,43,tongue,0.450252852403,right,1,correct,arm2,2,arm22,beaver
516,43,beaver,0.66670882632,left,1,correct,arm2,3,arm23,beaver
517,44,beaver,3.70044762699,space,0,wrong,target,NaN,targetNaN,beaver
518,44,trophy,2.33356314886,right,0,wrong,path,1,path1,beaver
519,44,astronaut,0.533591644373,right,0,wrong,path,2,path2,beaver
520,44,robot,0.450265228632,right,0,wrong,path,3,path3,beaver
521,44,watch,5.31711786054,left,0,wrong,decision,1,decision1,beaver
522,44,clover,1.90023946494,left,0,wrong,arm1,1,arm11,beaver
523,44,radio,0.750346760731,right,0,wrong,arm1,2,arm12,beaver
524,44,wing,0.70025292784,left,0,wrong,arm1,3,arm13,beaver
525,44,stepladder,1.68374787143,right,0,wrong,decision,2,decision2,beaver
526,44,calc,12.9500803398,right,0,wrong,arm2,1,arm21,beaver
527,44,tongue,0.517057609512,right,0,wrong,arm2,2,arm22,beaver
528,44,beaver,0.350274374941,left,0,wrong,arm2,3,arm23,beaver
529,45,beaver,4.75024261931,space,-1,miss,target,NaN,targetNaN,beaver
530,45,trophy,1.51690969849,right,-1,miss,path,1,path1,beaver
531,45,astronaut,0.333761470276,right,-1,miss,path,2,path2,beaver
532,45,robot,0.30024302681,right,-1,miss,path,3,path3,beaver
533,45,watch,3.38376444357,left,-1,miss,decision,1,decision1,beaver
534,45,clover,4.51686140103,left,-1,miss,arm1,1,arm11,beaver
535,45,radio,4.98350882914,right,-1,miss,arm1,2,arm12,beaver
536,45,wing,0.766919131624,left,-1,miss,arm1,3,arm13,beaver
537,45,holly,0.0337472526589,right,-1,miss,decision,2,decision2,beaver
538,45,match,3.08357514767,right,-1,miss,arm2,1,arm21,beaver
539,45,baby,0.533566891914,left,-1,miss,arm2,2,arm22,beaver
540,45,arc,0.983576143859,left,-1,miss,arm2,3,arm23,beaver
541,46,beaver,0.883609137032,space,-1,miss,target,NaN,targetNaN,beaver
542,46,trophy,4.91683960683,right,-1,miss,path,1,path1,beaver
543,46,astronaut,0.583568054019,right,-1,miss,path,2,path2,beaver
544,46,robot,0.617148378631,right,-1,miss,path,3,path3,beaver
545,46,pigeon,6.16699544166,left,-1,miss,decision,1,decision1,beaver
546,46,bus,3.03354681819,left,-1,miss,arm1,1,arm11,beaver
547,46,deer,1.01697052317,left,-1,miss,arm1,2,arm12,beaver
548,46,fist,1.8335720537,right,-1,miss,arm1,3,arm13,beaver
549,46,holly,1.00031483907,right,-1,miss,decision,2,decision2,beaver
550,46,match,7.93347174581,right,-1,miss,arm2,1,arm21,beaver
551,46,baby,1.33358609001,left,-1,miss,arm2,2,arm22,beaver
552,46,arc,7.70016599237,left,-1,miss,arm2,3,arm23,beaver
553,47,beaver,3.68357943406,space,-1,miss,target,NaN,targetNaN,beaver
554,47,trophy,1.26691445278,right,-1,miss,path,1,path1,beaver
555,47,astronaut,0.300284079625,right,-1,miss,path,2,path2,beaver
556,47,robot,0.233577426756,right,-1,miss,path,3,path3,beaver
557,47,pigeon,0.700793255703,left,-1,miss,decision,1,decision1,beaver
558,47,bus,1.53356689191,left,-1,miss,arm1,1,arm11,beaver
559,47,deer,0.766858759802,left,-1,miss,arm1,2,arm12,beaver
560,47,fist,0.400329267955,right,-1,miss,arm1,3,arm13,beaver
561,47,holly,1.78433550079,left,-1,miss,decision,2,decision2,beaver
562,47,match,3.21688944381,right,-1,miss,arm2,1,arm21,beaver
563,47,baby,0.583581033861,left,-1,miss,arm2,2,arm22,beaver
564,47,arc,0.30023125431,left,-1,miss,arm2,3,arm23,beaver
565,48,arc,0.633625965682,space,1,correct,target,NaN,targetNaN,arc
566,48,trophy,1.51693143242,right,1,correct,path,1,path1,arc
567,48,astronaut,0.916922014323,right,1,correct,path,2,path2,arc
568,48,robot,0.617018277291,right,1,correct,path,3,path3,arc
569,48,watch,0.517216085573,right,1,correct,decision,1,decision1,arc
570,48,clover,1.63376180234,left,1,correct,arm1,1,arm11,arc
571,48,radio,0.850458961795,right,1,correct,arm1,2,arm12,arc
572,48,wing,0.83359076886,left,1,correct,arm1,3,arm13,arc
573,48,holly,1.21724201529,left,1,correct,decision,2,decision2,arc
574,48,match,2.78358447517,right,1,correct,arm2,1,arm21,arc
575,48,baby,1.66691620357,left,1,correct,arm2,2,arm22,arc
576,48,arc,0.500232884428,left,1,correct,arm2,3,arm23,arc
577,49,arc,1.56691297365,space,-1,miss,target,NaN,targetNaN,arc
578,49,trophy,3.18355845485,right,-1,miss,path,1,path1,arc
579,49,astronaut,0.400360963191,right,-1,miss,path,2,path2,arc
580,49,robot,0.38358061132,right,-1,miss,path,3,path3,arc
581,49,watch,1.70029126399,right,-1,miss,decision,1,decision1,arc
582,49,clover,1.33352058672,left,-1,miss,arm1,1,arm11,arc
583,49,radio,0.416925485712,right,-1,miss,arm1,2,arm12,arc
584,49,wing,0.683625920326,left,-1,miss,arm1,3,arm13,arc
585,49,stepladder,0.66691469436,left,-1,miss,decision,2,decision2,arc
586,49,calc,5.08393103967,right,-1,miss,arm2,1,arm21,arc
587,49,tongue,0.550295625697,right,-1,miss,arm2,2,arm22,arc
588,49,beaver,0.450281227124,left,-1,miss,arm2,3,arm23,arc
589,50,beaver,1.78359866247,space,1,correct,target,NaN,targetNaN,beaver
590,50,trophy,17.9500048751,right,1,correct,path,1,path1,beaver
591,50,astronaut,0.366879346548,right,1,correct,path,2,path2,beaver
592,50,robot,0.283581909258,right,1,correct,path,3,path3,beaver
593,50,pigeon,0.750418603187,left,1,correct,decision,1,decision1,beaver
594,50,bus,2.13351865474,left,1,correct,arm1,1,arm11,beaver
595,50,deer,0.550283853314,left,1,correct,arm1,2,arm12,beaver
596,50,fist,1.25023824233,right,1,correct,arm1,3,arm13,beaver
597,50,stepladder,0.883679168415,right,1,correct,decision,2,decision2,beaver
598,50,calc,2.8502132484,right,1,correct,arm2,1,arm21,beaver
599,50,tongue,0.483588067349,right,1,correct,arm2,2,arm22,beaver
600,50,beaver,0.666922542616,left,1,correct,arm2,3,arm23,beaver
