pic_index,trial_num,pic_name,rt,resp,feedback_code,feedback,segment,segment_index,pic_type,trial_target
1,1,beaver,1.10030569287,space,0,wrong,target,NaN,targetNaN,beaver
2,1,trophy,2.91690993996,right,0,wrong,path,1,path1,beaver
3,1,astronaut,1.01690894389,right,0,wrong,path,2,path2,beaver
4,1,robot,0.366904099006,right,0,wrong,path,3,path3,beaver
5,1,watch,2.15000227909,left,0,wrong,decision,1,decision1,beaver
6,1,clover,4.38352416363,left,0,wrong,arm1,1,arm11,beaver
7,1,radio,0.516908189165,right,0,wrong,arm1,2,arm12,beaver
8,1,wing,0.533602209412,left,0,wrong,arm1,3,arm13,beaver
9,1,stepladder,2.16688948905,left,0,wrong,decision,2,decision2,beaver
10,1,calc,2.88353518152,right,0,wrong,arm2,1,arm21,beaver
11,1,tongue,0.683602677309,right,0,wrong,arm2,2,arm22,beaver
12,1,beaver,0.583585561835,left,0,wrong,arm2,3,arm23,beaver
13,2,arc,1.93362720334,space,-1,miss,target,NaN,targetNaN,arc
14,2,trophy,6.30028407963,right,-1,miss,path,1,path1,arc
15,2,astronaut,0.300260534743,right,-1,miss,path,2,path2,arc
16,2,robot,0.38357940386,right,-1,miss,path,3,path3,arc
17,2,watch,1.13360770326,left,-1,miss,decision,1,decision1,arc
18,2,clover,1.46700694249,left,-1,miss,arm1,1,arm11,arc
19,2,radio,0.616920776782,right,-1,miss,arm1,2,arm12,arc
20,2,wing,0.633603326161,left,-1,miss,arm1,3,arm13,arc
21,2,stepladder,1.2003306566,left,-1,miss,decision,2,decision2,arc
22,2,calc,1.36695782992,right,-1,miss,arm2,1,arm21,arc
23,2,tongue,0.88373440865,right,-1,miss,arm2,2,arm22,arc
24,2,beaver,0.5836734029,left,-1,miss,arm2,3,arm23,arc
25,3,arc,3.38352688041,space,0,wrong,target,NaN,targetNaN,arc
26,3,trophy,2.00023575197,right,0,wrong,path,1,path1,arc
27,3,astronaut,0.300256912364,right,0,wrong,path,2,path2,arc
28,3,robot,0.316924368846,right,0,wrong,path,3,path3,arc
29,3,pigeon,2.83372781298,right,0,wrong,decision,1,decision1,arc
30,3,bus,1.81691184174,left,0,wrong,arm1,1,arm11,arc
31,3,deer,0.616716418066,left,0,wrong,arm1,2,arm12,arc
32,3,fist,0.683596941992,right,0,wrong,arm1,3,arm13,arc
33,3,holly,2.20024221181,left,0,wrong,decision,2,decision2,arc
34,3,match,2.33359061799,right,0,wrong,arm2,1,arm21,arc
35,3,baby,2.15022354177,left,0,wrong,arm2,2,arm22,arc
36,3,arc,2.33354443358,left,0,wrong,arm2,3,arm23,arc
37,4,arc,1.41697891476,space,1,correct,target,NaN,targetNaN,arc
38,4,trophy,1.06751231512,right,1,correct,path,1,path1,arc
39,4,astronaut,1.05027253355,right,1,correct,path,2,path2,arc
40,4,robot,0.283619943657,right,1,correct,path,3,path3,arc
41,4,watch,1.66686579306,left,1,correct,decision,1,decision1,arc
42,4,clover,4.6502200705,left,1,correct,arm1,1,arm11,arc
43,4,radio,0.416923976503,right,1,correct,arm1,2,arm12,arc
44,4,wing,0.333569789771,left,1,correct,arm1,3,arm13,arc
45,4,holly,7.01684917579,right,1,correct,decision,2,decision2,arc
46,4,match,2.65022490011,right,1,correct,arm2,1,arm21,arc
47,4,baby,1.1837045548,left,1,correct,arm2,2,arm22,arc
48,4,arc,1.6000311519,left,1,correct,arm2,3,arm23,arc
49,5,beaver,1.21700052789,space,1,correct,target,NaN,targetNaN,beaver
50,5,trophy,1.70022213808,right,1,correct,path,1,path1,beaver
51,5,astronaut,0.61690357083,right,1,correct,path,2,path2,beaver
52,5,robot,0.283573759138,right,1,correct,path,3,path3,beaver
53,5,pigeon,1.10031354113,right,1,correct,decision,1,decision1,beaver
54,5,bus,1.46696438035,left,1,correct,arm1,1,arm11,beaver
55,5,deer,0.500236204825,left,1,correct,arm1,2,arm12,beaver
56,5,fist,0.583589184098,right,1,correct,arm1,3,arm13,beaver
57,5,stepladder,2.2173757389,right,1,correct,decision,2,decision2,beaver
58,5,calc,2.16693356039,right,1,correct,arm2,1,arm21,beaver
59,5,tongue,0.500241638278,right,1,correct,arm2,2,arm22,beaver
60,5,beaver,0.550333961844,left,1,correct,arm2,3,arm23,beaver
61,6,beaver,0.95025602181,space,-1,miss,target,NaN,targetNaN,beaver
62,6,trophy,1.23357320065,right,-1,miss,path,1,path1,beaver
63,6,astronaut,0.300251780776,right,-1,miss,path,2,path2,beaver
64,6,robot,0.216920535197,right,-1,miss,path,3,path3,beaver
65,6,watch,5.88354363362,right,-1,miss,decision,1,decision1,beaver
66,6,clover,2.15023621998,left,-1,miss,arm1,1,arm11,beaver
67,6,radio,0.266908717458,right,-1,miss,arm1,2,arm12,beaver
68,6,wing,0.266924112337,left,-1,miss,arm1,3,arm13,beaver
69,6,holly,1.63360091136,left,-1,miss,decision,2,decision2,beaver
70,6,match,1.11692183325,right,-1,miss,arm2,1,arm21,beaver
71,6,baby,0.966896311147,left,-1,miss,arm2,2,arm22,beaver
72,6,arc,0.950235797325,left,-1,miss,arm2,3,arm23,beaver
73,7,beaver,2.13373116357,space,1,correct,target,NaN,targetNaN,beaver
74,7,trophy,1.08366812032,right,1,correct,path,1,path1,beaver
75,7,astronaut,0.300233669113,right,1,correct,path,2,path2,beaver
76,7,robot,0.200248550856,right,1,correct,path,3,path3,beaver
77,7,pigeon,1.46696709702,right,1,correct,decision,1,decision1,beaver
78,7,bus,1.60026358336,left,1,correct,arm1,1,arm11,beaver
79,7,deer,0.483704283019,left,1,correct,arm1,2,arm12,beaver
80,7,fist,0.550235857721,right,1,correct,arm1,3,arm13,beaver
81,7,stepladder,1.9003617178,left,1,correct,decision,2,decision2,beaver
82,7,calc,2.93355234223,right,1,correct,arm2,1,arm21,beaver
83,7,tongue,0.333796486026,right,1,correct,arm2,2,arm22,beaver
84,7,beaver,0.300414180965,left,1,correct,arm2,3,arm23,beaver
85,8,arc,0.916938314796,space,-1,miss,target,NaN,targetNaN,arc
86,8,trophy,0.767011500546,right,-1,miss,path,1,path1,arc
87,8,astronaut,0.117314552073,right,-1,miss,path,2,path2,arc
88,8,robot,0.184369852301,right,-1,miss,path,3,path3,arc
89,8,watch,0.70033624093,left,-1,miss,decision,1,decision1,arc
90,8,clover,1.65023667272,left,-1,miss,arm1,1,arm11,arc
91,8,radio,0.783597756992,right,-1,miss,arm1,2,arm12,arc
92,8,wing,0.283580098185,left,-1,miss,arm1,3,arm13,arc
93,8,stepladder,0.967011621222,right,-1,miss,decision,2,decision2,arc
94,8,calc,2.25022737542,right,-1,miss,arm2,1,arm21,arc
95,8,tongue,0.167076943559,right,-1,miss,arm2,2,arm22,arc
96,8,beaver,0.284191363025,left,-1,miss,arm2,3,arm23,arc
97,9,beaver,0.933564718463,space,-1,miss,target,NaN,targetNaN,beaver
98,9,trophy,0.600271431846,right,-1,miss,path,1,path1,beaver
99,9,astronaut,0.183723571827,right,-1,miss,path,2,path2,beaver
100,9,robot,0.167031664751,right,-1,miss,path,3,path3,beaver
101,9,pigeon,0.733738166746,right,-1,miss,decision,1,decision1,beaver
102,9,bus,2.70029669744,left,-1,miss,arm1,1,arm11,beaver
103,9,deer,0.80027366546,left,-1,miss,arm1,2,arm12,beaver
104,9,fist,0.283575268462,right,-1,miss,arm1,3,arm13,beaver
105,9,holly,3.86692417262,right,-1,miss,decision,2,decision2,beaver
106,9,match,2.28353964898,right,-1,miss,arm2,1,arm21,beaver
107,9,baby,1.20022349653,left,-1,miss,arm2,2,arm22,beaver
108,9,arc,0.733573653502,left,-1,miss,arm2,3,arm23,beaver
109,10,beaver,2.55026453431,space,1,correct,target,NaN,targetNaN,beaver
110,10,trophy,0.733589953859,right,1,correct,path,1,path1,beaver
111,10,astronaut,0.350359499222,right,1,correct,path,2,path2,beaver
112,10,robot,0.383589667152,right,1,correct,path,3,path3,beaver
113,10,pigeon,2.53361458564,right,1,correct,decision,1,decision1,beaver
114,10,bus,1.10023626522,left,1,correct,arm1,1,arm11,beaver
115,10,deer,0.466939326026,left,1,correct,arm1,2,arm12,beaver
116,10,fist,0.700248701847,right,1,correct,arm1,3,arm13,beaver
117,10,stepladder,0.633655849728,left,1,correct,decision,2,decision2,beaver
118,10,calc,1.20060595218,right,1,correct,arm2,1,arm21,beaver
119,10,tongue,0.466985510546,right,1,correct,arm2,2,arm22,beaver
120,10,beaver,0.267154732719,left,1,correct,arm2,3,arm23,beaver
121,11,beaver,2.96691442258,space,-1,miss,target,NaN,targetNaN,beaver
122,11,trophy,1.20004358841,right,-1,miss,path,1,path1,beaver
123,11,astronaut,0.250305556925,right,-1,miss,path,2,path2,beaver
124,11,robot,0.433575736359,right,-1,miss,path,3,path3,beaver
125,11,pigeon,0.683617468341,right,-1,miss,decision,1,decision1,beaver
126,11,bus,1.8502156632,left,-1,miss,arm1,1,arm11,beaver
127,11,deer,0.350412928266,left,-1,miss,arm1,2,arm12,beaver
128,11,fist,0.43448795483,right,-1,miss,arm1,3,arm13,beaver
129,11,holly,1.00028103089,right,-1,miss,decision,2,decision2,beaver
130,11,match,1.20025126752,right,-1,miss,arm2,1,arm21,beaver
131,11,baby,1.25022405491,left,-1,miss,arm2,2,arm22,beaver
132,11,arc,0.416903148289,left,-1,miss,arm2,3,arm23,beaver
133,12,arc,1.61696816864,space,1,correct,target,NaN,targetNaN,arc
134,12,trophy,1.0168769469,right,1,correct,path,1,path1,arc
135,12,astronaut,0.150221126969,right,1,correct,path,2,path2,arc
136,12,robot,0.266924112337,right,1,correct,path,3,path3,arc
137,12,watch,1.15027848014,left,1,correct,decision,1,decision1,arc
138,12,clover,0.600254527642,left,1,correct,arm1,1,arm11,arc
139,12,radio,0.583592504612,right,1,correct,arm1,2,arm12,arc
140,12,wing,0.250275371131,left,1,correct,arm1,3,arm13,arc
141,12,holly,1.51690517063,right,1,correct,decision,2,decision2,arc
142,12,match,1.1335636318,right,1,correct,arm2,1,arm21,arc
143,12,baby,0.983629271039,left,1,correct,arm2,2,arm22,arc
144,12,arc,0.850270601688,left,1,correct,arm2,3,arm23,arc
145,13,arc,1.48360527318,space,1,correct,target,NaN,targetNaN,arc
146,13,trophy,3.00001509301,right,1,correct,path,1,path1,arc
147,13,astronaut,0.450318657677,right,1,correct,path,2,path2,arc
148,13,robot,0.267062363797,right,1,correct,path,3,path3,arc
149,13,watch,4.4169912911,right,1,correct,decision,1,decision1,arc
150,13,clover,0.833563299617,left,1,correct,arm1,1,arm11,arc
151,13,radio,0.96684499504,right,1,correct,arm1,2,arm12,arc
152,13,wing,0.83357899636,left,1,correct,arm1,3,arm13,arc
153,13,holly,0.666932503926,left,1,correct,decision,2,decision2,arc
154,13,match,1.31696662912,right,1,correct,arm2,1,arm21,arc
155,13,baby,0.783613151754,left,1,correct,arm2,2,arm22,arc
156,13,arc,0.733579690685,left,1,correct,arm2,3,arm23,arc
157,14,arc,1.80024468713,space,1,correct,target,NaN,targetNaN,arc
158,14,trophy,1.30021736887,right,1,correct,path,1,path1,arc
159,14,astronaut,0.266891511506,right,1,correct,path,2,path2,arc
160,14,robot,0.233569578384,right,1,correct,path,3,path3,arc
161,14,watch,0.650320891407,left,1,correct,decision,1,decision1,arc
162,14,clover,2.13406320871,left,1,correct,arm1,1,arm11,arc
163,14,radio,0.433588716318,right,1,correct,arm1,2,arm12,arc
164,14,wing,0.266923206742,left,1,correct,arm1,3,arm13,arc
165,14,holly,1.18374500389,left,1,correct,decision,2,decision2,arc
166,14,match,1.86745514302,right,1,correct,arm2,1,arm21,arc
167,14,baby,0.300272005261,left,1,correct,arm2,2,arm22,arc
168,14,arc,0.666874547023,left,1,correct,arm2,3,arm23,arc
169,15,beaver,0.45025738026,space,1,correct,target,NaN,targetNaN,beaver
170,15,trophy,1.2002111203,right,1,correct,path,1,path1,beaver
171,15,astronaut,0.316734499531,right,1,correct,path,2,path2,beaver
172,15,robot,0.466948381742,right,1,correct,path,3,path3,beaver
173,15,pigeon,0.750329554779,right,1,correct,decision,1,decision1,beaver
174,15,bus,0.850306221051,left,1,correct,arm1,1,arm11,beaver
175,15,deer,0.700235118158,left,1,correct,arm1,2,arm12,beaver
176,15,fist,0.283605152508,right,1,correct,arm1,3,arm13,beaver
177,15,stepladder,1.00032932847,right,1,correct,decision,2,decision2,beaver
178,15,calc,0.76729192771,right,1,correct,arm2,1,arm21,beaver
179,15,tongue,0.433502384578,right,1,correct,arm2,2,arm22,beaver
180,15,beaver,0.233580445289,left,1,correct,arm2,3,arm23,beaver
181,16,arc,0.917088640621,space,1,correct,target,NaN,targetNaN,arc
182,16,trophy,0.583571374533,right,1,correct,path,1,path1,arc
183,16,astronaut,0.200238287565,right,1,correct,path,2,path2,arc
184,16,robot,0.284191363025,right,1,correct,path,3,path3,arc
185,16,watch,2.1001970236,right,1,correct,decision,1,decision1,arc
186,16,clover,1.9836008962,left,1,correct,arm1,1,arm11,arc
187,16,radio,0.300246950937,right,1,correct,arm1,2,arm12,arc
188,16,wing,0.283583116834,left,1,correct,arm1,3,arm13,arc
189,16,holly,1.10031595593,right,1,correct,decision,2,decision2,arc
190,16,match,0.850271205301,right,1,correct,arm2,1,arm21,arc
191,16,baby,0.383582120645,left,1,correct,arm2,2,arm22,arc
192,16,arc,0.366956622573,left,1,correct,arm2,3,arm23,arc
193,17,arc,0.483636062942,space,-1,miss,target,NaN,targetNaN,arc
194,17,trophy,0.833623671555,right,-1,miss,path,1,path1,arc
195,17,astronaut,0.766911886982,right,-1,miss,path,2,path2,arc
196,17,robot,0.516915735789,right,-1,miss,path,3,path3,arc
197,17,watch,3.48353735497,right,-1,miss,decision,1,decision1,arc
198,17,clover,1.78354493168,left,-1,miss,arm1,1,arm11,arc
199,17,radio,0.583398107323,right,-1,miss,arm1,2,arm12,arc
200,17,wing,0.333579147235,left,-1,miss,arm1,3,arm13,arc
201,17,stepladder,2.95027352963,left,-1,miss,decision,2,decision2,arc
202,17,calc,0.633694185875,right,-1,miss,arm2,1,arm21,arc
203,17,tongue,0.550050516147,right,-1,miss,arm2,2,arm22,arc
204,17,beaver,0.167068189709,left,-1,miss,arm2,3,arm23,arc
205,18,beaver,0.81692753837,space,1,correct,target,NaN,targetNaN,beaver
206,18,trophy,0.533552402514,right,1,correct,path,1,path1,beaver
207,18,astronaut,0.283593380009,right,1,correct,path,2,path2,beaver
208,18,robot,0.31694881944,right,1,correct,path,3,path3,beaver
209,18,pigeon,0.633742483333,left,1,correct,decision,1,decision1,beaver
210,18,bus,1.15028270625,left,1,correct,arm1,1,arm11,beaver
211,18,deer,0.600277469028,left,1,correct,arm1,2,arm12,beaver
212,18,fist,0.450242890976,right,1,correct,arm1,3,arm13,beaver
213,18,stepladder,0.783628244768,right,1,correct,decision,2,decision2,beaver
214,18,calc,0.766960184556,right,1,correct,arm2,1,arm21,beaver
215,18,tongue,0.21697004023,right,1,correct,arm2,2,arm22,beaver
216,18,beaver,0.233629648341,left,1,correct,arm2,3,arm23,beaver
217,19,arc,0.567011681618,space,1,correct,target,NaN,targetNaN,arc
218,19,trophy,1.8002818157,right,1,correct,path,1,path1,arc
219,19,astronaut,0.416901035234,right,1,correct,path,2,path2,arc
220,19,robot,0.433585395804,right,1,correct,path,3,path3,arc
221,19,watch,4.60076436773,left,1,correct,decision,1,decision1,arc
222,19,clover,0.716912536067,left,1,correct,arm1,1,arm11,arc
223,19,radio,0.600248188595,right,1,correct,arm1,2,arm12,arc
224,19,wing,0.433593847905,left,1,correct,arm1,3,arm13,arc
225,19,holly,0.883685205481,left,1,correct,decision,2,decision2,arc
226,19,match,0.816714425804,right,1,correct,arm2,1,arm21,arc
227,19,baby,0.733607159927,left,1,correct,arm2,2,arm22,arc
228,19,arc,0.533684616908,left,1,correct,arm2,3,arm23,arc
229,20,beaver,0.950250588474,space,1,correct,target,NaN,targetNaN,beaver
230,20,trophy,0.700249003596,right,1,correct,path,1,path1,beaver
231,20,astronaut,0.116925153648,right,1,correct,path,2,path2,beaver
232,20,robot,0.216910272022,right,1,correct,path,3,path3,beaver
233,20,pigeon,0.416718410328,right,1,correct,decision,1,decision1,beaver
234,20,bus,0.583867800073,left,1,correct,arm1,1,arm11,beaver
235,20,deer,0.400256218156,left,1,correct,arm1,2,arm12,beaver
236,20,fist,0.334415900987,right,1,correct,arm1,3,arm13,beaver
237,20,stepladder,1.1502537278,right,1,correct,decision,2,decision2,beaver
238,20,calc,1.95019806491,right,1,correct,arm2,1,arm21,beaver
239,20,tongue,0.416910392814,right,1,correct,arm2,2,arm22,beaver
240,20,beaver,0.250058032456,left,1,correct,arm2,3,arm23,beaver
