pic_index,trial_num,pic_name,rt,resp,feedback_code,feedback,segment,segment_index,pic_type,trial_target
1,1,bolt,2.61692806642,space,1,correct,target,NaN,targetNaN,bolt
2,1,coffeepot,1.98356740479,left,1,correct,path,1,path1,bolt
3,1,mosquito,0.0668750298209,left,1,correct,path,2,path2,bolt
4,1,canoe,0.183572777896,right,1,correct,path,3,path3,bolt
5,1,domino,3.46689060572,left,1,correct,decision,1,decision1,bolt
6,1,ambulance,0.71671477292,right,1,correct,arm1,1,arm11,bolt
7,1,trunk,0.0835654125258,left,1,correct,arm1,2,arm12,bolt
8,1,peach,0.033589651779,left,1,correct,arm1,3,arm13,bolt
9,1,garlic,2.40029811586,left,1,correct,decision,2,decision2,bolt
10,1,mug,0.500265032111,right,1,correct,arm2,1,arm21,bolt
11,1,branch,0.000228809076361,left,1,correct,arm2,2,arm22,bolt
12,1,bolt,0.0502160404285,right,1,correct,arm2,3,arm23,bolt
13,2,bolt,1.31698203878,space,1,correct,target,NaN,targetNaN,bolt
14,2,coffeepot,0.716916716541,left,1,correct,path,1,path1,bolt
15,2,mosquito,0.0335697291011,left,1,correct,path,2,path2,bolt
16,2,canoe,0.133616034262,right,1,correct,path,3,path3,bolt
17,2,domino,0.683610510256,left,1,correct,decision,1,decision1,bolt
18,2,ambulance,1.15025268611,right,1,correct,arm1,1,arm11,bolt
19,2,trunk,0.116795550362,left,1,correct,arm1,2,arm12,bolt
20,2,peach,0.0168868928449,left,1,correct,arm1,3,arm13,bolt
21,2,garlic,0.766906362755,left,1,correct,decision,2,decision2,bolt
22,2,mug,0.550302372052,right,1,correct,arm2,1,arm21,bolt
23,2,branch,0.0335944815597,left,1,correct,arm2,2,arm22,bolt
24,2,bolt,0.0336956042447,right,1,correct,arm2,3,arm23,bolt
25,3,lion,0.583805994072,space,1,correct,target,NaN,targetNaN,lion
26,3,coffeepot,1.5669169882,left,1,correct,path,1,path1,lion
27,3,mosquito,0.583624275023,left,1,correct,path,2,path2,lion
28,3,canoe,0.166904129001,right,1,correct,path,3,path3,lion
29,3,goose,1.16690926059,right,1,correct,decision,1,decision1,lion
30,3,sailor,0.750402830687,right,1,correct,arm1,1,arm11,lion
31,3,cooker,0.0169333791418,right,1,correct,arm1,2,arm12,lion
32,3,tooth,0.0835865426634,left,1,correct,arm1,3,arm13,lion
33,3,crutches,0.833619294339,left,1,correct,decision,2,decision2,lion
34,3,stapler,0.733608004812,right,1,correct,arm2,1,arm21,lion
35,3,rose,0.0177085527976,right,1,correct,arm2,2,arm22,lion
36,3,lion,0.200309043168,left,1,correct,arm2,3,arm23,lion
37,4,bolt,0.350281604187,space,1,correct,target,NaN,targetNaN,bolt
38,4,coffeepot,0.83359635307,left,1,correct,path,1,path1,bolt
39,4,mosquito,0.0502368686721,left,1,correct,path,2,path2,bolt
40,4,canoe,0.150239706156,right,1,correct,path,3,path3,bolt
41,4,domino,2.25026186259,left,1,correct,decision,1,decision1,bolt
42,4,ambulance,1.60029081086,right,1,correct,arm1,1,arm11,bolt
43,4,trunk,0.116896069376,left,1,correct,arm1,2,arm12,bolt
44,4,peach,0.0168865910091,left,1,correct,arm1,3,arm13,bolt
45,4,garlic,0.683356948779,left,1,correct,decision,2,decision2,bolt
46,4,mug,1.08356541253,right,1,correct,arm2,1,arm21,bolt
47,4,branch,0.28354844806,left,1,correct,arm2,2,arm22,bolt
48,4,bolt,1.03337352083,right,1,correct,arm2,3,arm23,bolt
49,5,bolt,0.384710423736,space,1,correct,target,NaN,targetNaN,bolt
50,5,coffeepot,0.666921636817,left,1,correct,path,1,path1,bolt
51,5,mosquito,0.0169004765048,left,1,correct,path,2,path2,bolt
52,5,canoe,0.100345145474,right,1,correct,path,3,path3,bolt
53,5,domino,0.633576188906,left,1,correct,decision,1,decision1,bolt
54,5,ambulance,0.433586210595,right,1,correct,arm1,1,arm11,bolt
55,5,trunk,0.0836417828104,left,1,correct,arm1,2,arm12,bolt
56,5,peach,0.0169403218897,left,1,correct,arm1,3,arm13,bolt
57,5,garlic,0.900359695079,left,1,correct,decision,2,decision2,bolt
58,5,mug,0.400278495043,right,1,correct,arm2,1,arm21,bolt
59,5,branch,0.116935914761,left,1,correct,arm2,2,arm22,bolt
60,5,bolt,0.100323713501,right,1,correct,arm2,3,arm23,bolt
61,6,lion,0.500294010562,space,1,correct,target,NaN,targetNaN,lion
62,6,coffeepot,6.03347615286,left,1,correct,path,1,path1,lion
63,6,mosquito,0.0335621826234,left,1,correct,path,2,path2,lion
64,6,canoe,0.116986928915,right,1,correct,path,3,path3,lion
65,6,goose,0.750291746634,right,1,correct,decision,1,decision1,lion
66,6,sailor,0.616940744483,right,1,correct,arm1,1,arm11,lion
67,6,cooker,0.000261107954429,right,1,correct,arm1,2,arm12,lion
68,6,tooth,0.0676876339712,left,1,correct,arm1,3,arm13,lion
69,6,crutches,1.31692649674,right,1,correct,decision,2,decision2,lion
70,6,stapler,0.416998158064,right,1,correct,arm2,1,arm21,lion
71,6,rose,0.216976484604,right,1,correct,arm2,2,arm22,lion
72,6,lion,0.183678126661,left,1,correct,arm2,3,arm23,lion
73,7,lion,0.76766855648,space,1,correct,target,NaN,targetNaN,lion
74,7,coffeepot,0.666945483681,left,1,correct,path,1,path1,lion
75,7,mosquito,0.0335522212845,left,1,correct,path,2,path2,lion
76,7,canoe,0.100812423043,right,1,correct,path,3,path3,lion
77,7,goose,0.900273363426,left,1,correct,decision,1,decision1,lion
78,7,sailor,1.36691191696,right,1,correct,arm1,1,arm11,lion
79,7,cooker,0.00034049685928,right,1,correct,arm1,2,arm12,lion
80,7,tooth,0.116913577192,left,1,correct,arm1,3,arm13,lion
81,7,crutches,1.41697672606,right,1,correct,decision,2,decision2,lion
82,7,stapler,0.533535317198,right,1,correct,arm2,1,arm21,lion
83,7,rose,0.0336986228649,right,1,correct,arm2,2,arm22,lion
84,7,lion,0.200226635672,left,1,correct,arm2,3,arm23,lion
85,8,lion,0.266974281025,space,1,correct,target,NaN,targetNaN,lion
86,8,coffeepot,0.583726605168,left,1,correct,path,1,path1,lion
87,8,mosquito,0.000277106475551,left,1,correct,path,2,path2,lion
88,8,canoe,0.134213413054,right,1,correct,path,3,path3,lion
89,8,goose,0.533687152201,left,1,correct,decision,1,decision1,lion
90,8,sailor,0.983581894019,right,1,correct,arm1,1,arm11,lion
91,8,cooker,0.000334761512931,right,1,correct,arm1,2,arm12,lion
92,8,tooth,0.300422964705,left,1,correct,arm1,3,arm13,lion
93,8,crutches,0.883585697418,left,1,correct,decision,2,decision2,lion
94,8,stapler,0.383586904878,right,1,correct,arm2,1,arm21,lion
95,8,rose,0.616903313989,right,1,correct,arm2,2,arm22,lion
96,8,lion,0.0668988766556,left,1,correct,arm2,3,arm23,lion
97,9,bolt,0.38364486178,space,1,correct,target,NaN,targetNaN,bolt
98,9,coffeepot,0.866969270137,left,1,correct,path,1,path1,bolt
99,9,mosquito,0.433377324225,left,1,correct,path,2,path2,bolt
100,9,canoe,0.333583373111,right,1,correct,path,3,path3,bolt
101,9,domino,3.40021812325,left,1,correct,decision,1,decision1,bolt
102,9,ambulance,2.38363127815,right,1,correct,arm1,1,arm11,bolt
103,9,trunk,0.133612713806,left,1,correct,arm1,2,arm12,bolt
104,9,peach,0.0335655030794,left,1,correct,arm1,3,arm13,bolt
105,9,garlic,1.68363284779,right,1,correct,decision,2,decision2,bolt
106,9,mug,0.383599884808,right,1,correct,arm2,1,arm21,bolt
107,9,branch,0.100216553605,left,1,correct,arm2,2,arm22,bolt
108,9,bolt,0.0503835721174,right,1,correct,arm2,3,arm23,bolt
109,10,bolt,0.467067796912,space,1,correct,target,NaN,targetNaN,bolt
110,10,coffeepot,0.716954147036,left,1,correct,path,1,path1,bolt
111,10,mosquito,0.0178335224045,left,1,correct,path,2,path2,bolt
112,10,canoe,0.166717882064,right,1,correct,path,3,path3,bolt
113,10,domino,1.31686793614,right,1,correct,decision,1,decision1,bolt
114,10,ambulance,0.666923447978,right,1,correct,arm1,1,arm11,bolt
115,10,trunk,0.0835611865041,left,1,correct,arm1,2,arm12,bolt
116,10,peach,0.0335664086451,left,1,correct,arm1,3,arm13,bolt
117,10,garlic,0.700196751655,left,1,correct,decision,2,decision2,bolt
118,10,mug,0.33359635307,right,1,correct,arm2,1,arm21,bolt
119,10,branch,0.116896371241,left,1,correct,arm2,2,arm22,bolt
120,10,bolt,0.0841000046348,right,1,correct,arm2,3,arm23,bolt
121,11,lion,0.550304485107,space,-1,miss,target,NaN,targetNaN,lion
122,11,coffeepot,3.83360178652,left,-1,miss,path,1,path1,lion
123,11,mosquito,0.0336107819167,left,-1,miss,path,2,path2,lion
124,11,canoe,0.283591915737,right,-1,miss,path,3,path3,lion
125,11,domino,2.16696601009,right,-1,miss,decision,1,decision1,lion
126,11,ambulance,0.766930209618,right,-1,miss,arm1,1,arm11,lion
127,11,trunk,0.116730046953,left,-1,miss,arm1,2,arm12,lion
128,11,peach,0.000271673023235,left,-1,miss,arm1,3,arm13,lion
129,11,garlic,0.734639758564,right,-1,miss,decision,2,decision2,lion
130,11,mug,0.700530305709,right,-1,miss,arm2,1,arm21,lion
131,11,branch,1.58358624077,left,-1,miss,arm2,2,arm22,lion
132,11,bolt,0.31686431382,right,-1,miss,arm2,3,arm23,lion
133,12,bolt,5.56688499116,space,1,correct,target,NaN,targetNaN,bolt
134,12,coffeepot,1.90022204741,left,1,correct,path,1,path1,bolt
135,12,mosquito,0.333530849661,left,1,correct,path,2,path2,bolt
136,12,canoe,0.113824051252,right,1,correct,path,3,path3,bolt
137,12,domino,1.38362916512,right,1,correct,decision,1,decision1,bolt
138,12,ambulance,0.417047059193,right,1,correct,arm1,1,arm11,bolt
139,12,trunk,0.0503452360281,left,1,correct,arm1,2,arm12,bolt
140,12,peach,0.25036117417,left,1,correct,arm1,3,arm13,bolt
141,12,garlic,1.6502584214,right,1,correct,decision,2,decision2,bolt
142,12,mug,0.450320362841,right,1,correct,arm2,1,arm21,bolt
143,12,branch,0.150254195381,left,1,correct,arm2,2,arm22,bolt
144,12,bolt,0.0502296240593,right,1,correct,arm2,3,arm23,bolt
145,13,lion,0.283773634816,space,1,correct,target,NaN,targetNaN,lion
146,13,coffeepot,0.600380161108,left,1,correct,path,1,path1,lion
147,13,mosquito,0.000233336933888,left,1,correct,path,2,path2,lion
148,13,canoe,0.133613317535,right,1,correct,path,3,path3,lion
149,13,goose,3.70025380299,left,1,correct,decision,1,decision1,lion
150,13,sailor,0.551092336827,right,1,correct,arm1,1,arm11,lion
151,13,cooker,0.51698046911,right,1,correct,arm1,2,arm12,lion
152,13,tooth,0.100234665122,left,1,correct,arm1,3,arm13,lion
153,13,crutches,0.950257274351,right,1,correct,decision,2,decision2,lion
154,13,stapler,0.30031761594,right,1,correct,arm2,1,arm21,lion
155,13,rose,0.750260051427,right,1,correct,arm2,2,arm22,lion
156,13,lion,0.0335981038515,left,1,correct,arm2,3,arm23,lion
157,14,bolt,0.450368962134,space,-1,miss,target,NaN,targetNaN,bolt
158,14,coffeepot,1.58355907348,left,-1,miss,path,1,path1,bolt
159,14,mosquito,0.0502308314899,left,-1,miss,path,2,path2,bolt
160,14,canoe,0.23359019513,right,-1,miss,path,3,path3,bolt
161,14,domino,2.3835690952,left,-1,miss,decision,1,decision1,bolt
162,14,ambulance,0.316915026109,right,-1,miss,arm1,1,arm11,bolt
163,14,trunk,0.416996950604,left,-1,miss,arm1,2,arm12,bolt
164,14,peach,0.0502758084913,left,-1,miss,arm1,3,arm13,bolt
165,14,crutches,1.41693657884,right,-1,miss,decision,2,decision2,bolt
166,14,stapler,0.450256066921,right,-1,miss,arm2,1,arm21,bolt
167,14,rose,0.116911162302,right,-1,miss,arm2,2,arm22,bolt
168,14,lion,0.133723496052,left,-1,miss,arm2,3,arm23,bolt
169,15,bolt,0.183658505819,space,-1,miss,target,NaN,targetNaN,bolt
170,15,coffeepot,1.33356888391,left,-1,miss,path,1,path1,bolt
171,15,mosquito,0.0337239789951,left,-1,miss,path,2,path2,bolt
172,15,canoe,0.400252535183,right,-1,miss,path,3,path3,bolt
173,15,domino,2.01694334048,left,-1,miss,decision,1,decision1,bolt
174,15,ambulance,0.467462326487,right,-1,miss,arm1,1,arm11,bolt
175,15,trunk,0.216907660768,left,-1,miss,arm1,2,arm12,bolt
176,15,peach,0.0172228618467,left,-1,miss,arm1,3,arm13,bolt
177,15,crutches,1.16699921456,right,-1,miss,decision,2,decision2,bolt
178,15,stapler,3.16688390446,right,-1,miss,arm2,1,arm21,bolt
179,15,rose,1.01704627436,right,-1,miss,arm2,2,arm22,bolt
180,15,lion,0.0669015933818,left,-1,miss,arm2,3,arm23,bolt
181,16,lion,0.283620290487,space,1,correct,target,NaN,targetNaN,lion
182,16,coffeepot,1.63358705581,left,1,correct,path,1,path1,lion
183,16,mosquito,0.0504511884938,left,1,correct,path,2,path2,lion
184,16,canoe,0.316922270722,right,1,correct,path,3,path3,lion
185,16,goose,2.33353115155,right,1,correct,decision,1,decision1,lion
186,16,sailor,0.65025178052,right,1,correct,arm1,1,arm11,lion
187,16,cooker,0.383394922595,right,1,correct,arm1,2,arm12,lion
188,16,tooth,0.15023698943,left,1,correct,arm1,3,arm13,lion
189,16,crutches,0.817050862621,left,1,correct,decision,2,decision2,lion
190,16,stapler,0.400422179868,right,1,correct,arm2,1,arm21,lion
191,16,rose,0.150083041401,right,1,correct,arm2,2,arm22,lion
192,16,lion,0.266947717435,left,1,correct,arm2,3,arm23,lion
193,17,lion,0.400892777921,space,1,correct,target,NaN,targetNaN,lion
194,17,coffeepot,1.10024583389,left,1,correct,path,1,path1,lion
195,17,mosquito,0.0335839164618,left,1,correct,path,2,path2,lion
196,17,canoe,0.113826768007,right,1,correct,path,3,path3,lion
197,17,goose,0.0334218182252,right,1,correct,decision,1,decision1,lion
198,17,sailor,5.63353453236,right,1,correct,arm1,1,arm11,lion
199,17,cooker,0.050243509555,right,1,correct,arm1,2,arm12,lion
200,17,tooth,0.450241275801,left,1,correct,arm1,3,arm13,lion
201,17,crutches,0.800353235274,left,1,correct,decision,2,decision2,lion
202,17,stapler,0.500267748866,right,1,correct,arm2,1,arm21,lion
203,17,rose,0.0169665836147,right,1,correct,arm2,2,arm22,lion
204,17,lion,0.100693188782,left,1,correct,arm2,3,arm23,lion
205,18,bolt,0.466978446668,space,1,correct,target,NaN,targetNaN,bolt
206,18,coffeepot,6.55015023518,left,1,correct,path,1,path1,bolt
207,18,mosquito,0.0502253980667,left,1,correct,path,2,path2,bolt
208,18,canoe,0.333699890674,right,1,correct,path,3,path3,bolt
209,18,domino,1.08366532781,left,1,correct,decision,1,decision1,bolt
210,18,ambulance,0.717050138162,right,1,correct,arm1,1,arm11,bolt
211,18,trunk,0.15044768696,left,1,correct,arm1,2,arm12,bolt
212,18,peach,0.0169931472046,left,1,correct,arm1,3,arm13,bolt
213,18,garlic,0.783785709151,right,1,correct,decision,2,decision2,bolt
214,18,mug,0.467085002863,right,1,correct,arm2,1,arm21,bolt
215,18,branch,0.0502972404647,left,1,correct,arm2,2,arm22,bolt
216,18,bolt,0.150361959008,right,1,correct,arm2,3,arm23,bolt
217,19,lion,2.6169685155,space,1,correct,target,NaN,targetNaN,lion
218,19,coffeepot,2.43355270426,left,1,correct,path,1,path1,lion
219,19,mosquito,0.0335609751928,left,1,correct,path,2,path2,lion
220,19,canoe,0.216926979716,right,1,correct,path,3,path3,lion
221,19,goose,1.03359568899,left,1,correct,decision,1,decision1,lion
222,19,sailor,0.58360405048,right,1,correct,arm1,1,arm11,lion
223,19,cooker,0.00108457906754,right,1,correct,arm1,2,arm12,lion
224,19,tooth,0.233579931926,left,1,correct,arm1,3,arm13,lion
225,19,crutches,3.50028586038,right,1,correct,decision,2,decision2,lion
226,19,stapler,0.533695000544,right,1,correct,arm2,1,arm21,lion
227,19,rose,0.0502583006746,right,1,correct,arm2,2,arm22,lion
228,19,lion,0.233613136399,left,1,correct,arm2,3,arm23,lion
229,20,lion,0.583608276502,space,1,correct,target,NaN,targetNaN,lion
230,20,coffeepot,2.05040289109,left,1,correct,path,1,path1,lion
231,20,mosquito,0.0336050465994,left,1,correct,path,2,path2,lion
232,20,canoe,0.114141908707,right,1,correct,path,3,path3,lion
233,20,goose,3.95025938738,right,1,correct,decision,1,decision1,lion
234,20,sailor,0.6002422116,right,1,correct,arm1,1,arm11,lion
235,20,cooker,0.016896552348,right,1,correct,arm1,2,arm12,lion
236,20,tooth,0.217135262385,left,1,correct,arm1,3,arm13,lion
237,20,crutches,1.63340744976,right,1,correct,decision,2,decision2,lion
238,20,stapler,0.883603808965,right,1,correct,arm2,1,arm21,lion
239,20,rose,0.350244173664,right,1,correct,arm2,2,arm22,lion
240,20,lion,0.250233789702,left,1,correct,arm2,3,arm23,lion
