pic_index,trial_num,pic_name,rt,resp,feedback_code,feedback,segment,segment_index,pic_type,trial_target
1,1,lion,13.1167732128,space,-1,miss,target,NaN,targetNaN,lion
2,1,coffeepot,6.25013689301,left,-1,miss,path,1,path1,lion
3,1,mosquito,1.81691774284,left,-1,miss,path,2,path2,lion
4,1,canoe,0.114170585293,right,-1,miss,path,3,path3,lion
5,1,domino,20.0999379378,left,-1,miss,decision,1,decision1,lion
6,1,ambulance,4.31688302907,right,-1,miss,arm1,1,arm11,lion
7,1,trunk,0.883585093718,left,-1,miss,arm1,2,arm12,lion
8,1,peach,0.700258028985,left,-1,miss,arm1,3,arm13,lion
9,1,garlic,3.38362192051,left,-1,miss,decision,2,decision2,lion
10,1,mug,4.95018935608,right,-1,miss,arm2,1,arm21,lion
11,1,branch,0.633575585176,left,-1,miss,arm2,2,arm22,lion
12,1,bolt,1.16690322343,right,-1,miss,arm2,3,arm23,lion
13,2,bolt,1.33366849733,space,1,correct,target,NaN,targetNaN,bolt
14,2,coffeepot,3.01688538358,left,1,correct,path,1,path1,bolt
15,2,mosquito,0.0669088380237,left,1,correct,path,2,path2,bolt
16,2,canoe,1.1669267684,right,1,correct,path,3,path3,bolt
17,2,domino,4.28354754249,left,1,correct,decision,1,decision1,bolt
18,2,ambulance,2.01732217343,right,1,correct,arm1,1,arm11,bolt
19,2,trunk,0.183560703503,left,1,correct,arm1,2,arm12,bolt
20,2,peach,0.633669765142,left,1,correct,arm1,3,arm13,bolt
21,2,garlic,2.41694080486,right,1,correct,decision,2,decision2,bolt
22,2,mug,0.80046220636,right,1,correct,arm2,1,arm21,bolt
23,2,branch,0.566952003835,left,1,correct,arm2,2,arm22,bolt
24,2,bolt,0.250237412023,right,1,correct,arm2,3,arm23,bolt
25,3,bolt,9.35030545105,space,-1,miss,target,NaN,targetNaN,bolt
26,3,coffeepot,1.81693011904,left,-1,miss,path,1,path1,bolt
27,3,mosquito,0.0335772755789,left,-1,miss,path,2,path2,bolt
28,3,canoe,0.114310044097,right,-1,miss,path,3,path3,bolt
29,3,goose,0.000262919114903,right,-1,miss,decision,1,decision1,bolt
30,3,sailor,7.33353024596,right,-1,miss,arm1,1,arm11,bolt
31,3,cooker,0.200347982958,right,-1,miss,arm1,2,arm12,bolt
32,3,tooth,0.25030925445,left,-1,miss,arm1,3,arm13,bolt
33,3,crutches,0.03354075065,left,-1,miss,decision,2,decision2,bolt
34,3,stapler,0.433672240411,right,-1,miss,arm2,1,arm21,bolt
35,3,rose,0.116976363846,right,-1,miss,arm2,2,arm22,bolt
36,3,lion,0.000236959254835,left,-1,miss,arm2,3,arm23,bolt
37,4,lion,0.433701822563,space,0,wrong,target,NaN,targetNaN,lion
38,4,coffeepot,11.9501401531,left,0,wrong,path,1,path1,lion
39,4,mosquito,0.183582437341,left,0,wrong,path,2,path2,lion
40,4,canoe,0.233749878505,right,0,wrong,path,3,path3,lion
41,4,domino,2.81689812202,left,0,wrong,decision,1,decision1,lion
42,4,ambulance,2.80021347463,right,0,wrong,arm1,1,arm11,lion
43,4,trunk,0.483578573563,left,0,wrong,arm1,2,arm12,lion
44,4,peach,0.233595326747,left,0,wrong,arm1,3,arm13,lion
45,4,crutches,1.43365141211,left,0,wrong,decision,2,decision2,lion
46,4,stapler,10.2335859691,right,0,wrong,arm2,1,arm21,lion
47,4,rose,0.550250452332,right,0,wrong,arm2,2,arm22,lion
48,4,lion,1.26690515535,left,0,wrong,arm2,3,arm23,lion
49,5,lion,3.61688852293,space,1,correct,target,NaN,targetNaN,lion
50,5,coffeepot,1.53356369192,left,1,correct,path,1,path1,lion
51,5,mosquito,0.100226213079,left,1,correct,path,2,path2,lion
52,5,canoe,0.114320005465,right,1,correct,path,3,path3,lion
53,5,goose,0.116948290961,right,1,correct,decision,1,decision1,lion
54,5,sailor,11.1167768351,right,1,correct,arm1,1,arm11,lion
55,5,cooker,1.33358608987,right,1,correct,arm1,2,arm12,lion
56,5,tooth,1.23356031111,left,1,correct,arm1,3,arm13,lion
57,5,crutches,3.56686476662,right,1,correct,decision,2,decision2,lion
58,5,stapler,1.13428102943,right,1,correct,arm2,1,arm21,lion
59,5,rose,0.200234785851,right,1,correct,arm2,2,arm22,lion
60,5,lion,0.200215165038,left,1,correct,arm2,3,arm23,lion
61,6,bolt,6.21687868229,space,1,correct,target,NaN,targetNaN,bolt
62,6,coffeepot,0.983587931201,left,1,correct,path,1,path1,bolt
63,6,mosquito,0.283720507636,left,1,correct,path,2,path2,bolt
64,6,canoe,0.517036916746,right,1,correct,path,3,path3,bolt
65,6,domino,2.0503204836,right,1,correct,decision,1,decision1,bolt
66,6,ambulance,1.01694334048,right,1,correct,arm1,1,arm11,bolt
67,6,trunk,0.550253470923,left,1,correct,arm1,2,arm12,bolt
68,6,peach,0.100221685192,left,1,correct,arm1,3,arm13,bolt
69,6,garlic,1.10036838861,right,1,correct,decision,2,decision2,bolt
70,6,mug,0.733797572233,right,1,correct,arm2,1,arm21,bolt
71,6,branch,0.33338807043,left,1,correct,arm2,2,arm22,bolt
72,6,bolt,0.166889639804,right,1,correct,arm2,3,arm23,bolt
73,7,bolt,0.834013823915,space,1,correct,target,NaN,targetNaN,bolt
74,7,coffeepot,2.25023288417,left,1,correct,path,1,path1,bolt
75,7,mosquito,0.216914905352,left,1,correct,path,2,path2,bolt
76,7,canoe,0.114257822512,right,1,correct,path,3,path3,bolt
77,7,domino,4.0002689563,right,1,correct,decision,1,decision1,bolt
78,7,ambulance,0.950265726395,right,1,correct,arm1,1,arm11,bolt
79,7,trunk,0.150247554498,left,1,correct,arm1,2,arm12,bolt
80,7,peach,0.250325856701,left,1,correct,arm1,3,arm13,bolt
81,7,garlic,1.01698741186,left,1,correct,decision,2,decision2,bolt
82,7,mug,0.616944970505,right,1,correct,arm2,1,arm21,bolt
83,7,branch,0.283499546902,left,1,correct,arm2,2,arm22,bolt
84,7,bolt,0.150272306928,right,1,correct,arm2,3,arm23,bolt
85,8,lion,0.466950675647,space,1,correct,target,NaN,targetNaN,lion
86,8,coffeepot,3.06704135405,left,1,correct,path,1,path1,lion
87,8,mosquito,0.250485841912,left,1,correct,path,2,path2,lion
88,8,canoe,0.383581773291,right,1,correct,path,3,path3,lion
89,8,goose,4.25019213319,right,1,correct,decision,1,decision1,lion
90,8,sailor,2.90020816191,right,1,correct,arm1,1,arm11,lion
91,8,cooker,0.966943431034,right,1,correct,arm1,2,arm12,lion
92,8,tooth,0.216976484575,left,1,correct,arm1,3,arm13,lion
93,8,crutches,6.06685993687,left,1,correct,decision,2,decision2,lion
94,8,stapler,0.683588474552,right,1,correct,arm2,1,arm21,lion
95,8,rose,0.900188541069,right,1,correct,arm2,2,arm22,lion
96,8,lion,0.900243781274,left,1,correct,arm2,3,arm23,lion
97,9,lion,12.2335503498,space,1,correct,target,NaN,targetNaN,lion
98,9,coffeepot,2.10024975805,left,1,correct,path,1,path1,lion
99,9,mosquito,3.18355527005,left,1,correct,path,2,path2,lion
100,9,canoe,0.114247559337,right,1,correct,path,3,path3,lion
101,9,goose,5.75018156812,left,1,correct,decision,1,decision1,lion
102,9,sailor,1.3504636251,right,1,correct,arm1,1,arm11,lion
103,9,cooker,0.400365128531,right,1,correct,arm1,2,arm12,lion
104,9,tooth,0.300224945269,left,1,correct,arm1,3,arm13,lion
105,9,crutches,1.53369952843,left,1,correct,decision,2,decision2,lion
106,9,stapler,0.767026200745,right,1,correct,arm2,1,arm21,lion
107,9,rose,0.717008481617,right,1,correct,arm2,2,arm22,lion
108,9,lion,0.716917018377,left,1,correct,arm2,3,arm23,lion
109,10,bolt,0.666979593749,space,1,correct,target,NaN,targetNaN,bolt
110,10,coffeepot,5.50035498608,left,1,correct,path,1,path1,bolt
111,10,mosquito,0.216919735103,left,1,correct,path,2,path2,bolt
112,10,canoe,0.216897397564,right,1,correct,path,3,path3,bolt
113,10,domino,3.63355143645,left,1,correct,decision,1,decision1,bolt
114,10,ambulance,5.01685066978,right,1,correct,arm1,1,arm11,bolt
115,10,trunk,0.150236083835,left,1,correct,arm1,2,arm12,bolt
116,10,peach,0.0666984423588,left,1,correct,arm1,3,arm13,bolt
117,10,garlic,3.08364540516,right,1,correct,decision,2,decision2,bolt
118,10,mug,0.700245049055,right,1,correct,arm2,1,arm21,bolt
119,10,branch,0.201258993126,left,1,correct,arm2,2,arm22,bolt
120,10,bolt,0.183644016593,right,1,correct,arm2,3,arm23,bolt
121,11,lion,1.31731317801,space,-1,miss,target,NaN,targetNaN,lion
122,11,coffeepot,6.60013444797,left,-1,miss,path,1,path1,lion
123,11,mosquito,0.066904310137,left,-1,miss,path,2,path2,lion
124,11,canoe,0.217138280947,right,-1,miss,path,3,path3,lion
125,11,domino,6.75023469533,right,-1,miss,decision,1,decision1,lion
126,11,ambulance,6.56683427884,right,-1,miss,arm1,1,arm11,lion
127,11,trunk,0.116963685752,left,-1,miss,arm1,2,arm12,lion
128,11,peach,0.0668922357727,left,-1,miss,arm1,3,arm13,lion
129,11,garlic,9.36684339499,left,-1,miss,decision,2,decision2,lion
130,11,mug,0.633606374788,right,-1,miss,arm2,1,arm21,lion
131,11,branch,0.150279853406,left,-1,miss,arm2,2,arm22,lion
132,11,bolt,0.166935220477,right,-1,miss,arm2,3,arm23,lion
133,12,bolt,0.716968334396,space,-1,miss,target,NaN,targetNaN,bolt
134,12,coffeepot,6.31681239407,left,-1,miss,path,1,path1,bolt
135,12,mosquito,0.0504454531765,left,-1,miss,path,2,path2,bolt
136,12,canoe,0.350296395278,right,-1,miss,path,3,path3,bolt
137,12,goose,1.13364772944,left,-1,miss,decision,1,decision1,bolt
138,12,sailor,3.21700908538,right,-1,miss,arm1,1,arm11,bolt
139,12,cooker,0.133555964334,right,-1,miss,arm1,2,arm12,bolt
140,12,tooth,0.016893231892,left,-1,miss,arm1,3,arm13,bolt
141,12,crutches,0.183602661913,right,-1,miss,decision,2,decision2,bolt
142,12,stapler,0.483589138632,right,-1,miss,arm2,1,arm21,bolt
143,12,rose,0.283609423524,right,-1,miss,arm2,2,arm22,bolt
144,12,lion,0.0169249270984,left,-1,miss,arm2,3,arm23,bolt
145,13,bolt,0.60037321836,space,1,correct,target,NaN,targetNaN,bolt
146,13,coffeepot,1.13359792274,left,1,correct,path,1,path1,bolt
147,13,mosquito,0.350252323871,left,1,correct,path,2,path2,bolt
148,13,canoe,0.334379978798,right,1,correct,path,3,path3,bolt
149,13,domino,0.883621316811,left,1,correct,decision,1,decision1,bolt
150,13,ambulance,0.967602087185,right,1,correct,arm1,1,arm11,bolt
151,13,trunk,0.133606374788,left,1,correct,arm1,2,arm12,bolt
152,13,peach,0.150259326998,left,1,correct,arm1,3,arm13,bolt
153,13,garlic,1.16696118034,right,1,correct,decision,2,decision2,bolt
154,13,mug,0.750215074455,right,1,correct,arm2,1,arm21,bolt
155,13,branch,0.116919614346,left,1,correct,arm2,2,arm22,bolt
156,13,bolt,0.116729745117,right,1,correct,arm2,3,arm23,bolt
157,14,bolt,0.533651834732,space,1,correct,target,NaN,targetNaN,bolt
158,14,coffeepot,0.817475578078,left,1,correct,path,1,path1,bolt
159,14,mosquito,0.0836553664703,left,1,correct,path,2,path2,bolt
160,14,canoe,0.250270616496,right,1,correct,path,3,path3,bolt
161,14,domino,14.6500567797,left,1,correct,decision,1,decision1,bolt
162,14,ambulance,0.650265967881,right,1,correct,arm1,1,arm11,bolt
163,14,trunk,0.133678217215,left,1,correct,arm1,2,arm12,bolt
164,14,peach,0.0502160403994,left,1,correct,arm1,3,arm13,bolt
165,14,garlic,5.13357467958,left,1,correct,decision,2,decision2,bolt
166,14,mug,0.483576158702,right,1,correct,arm2,1,arm21,bolt
167,14,branch,0.116892447055,left,1,correct,arm2,2,arm22,bolt
168,14,bolt,0.100379859243,right,1,correct,arm2,3,arm23,bolt
169,15,lion,0.716968032531,space,1,correct,target,NaN,targetNaN,lion
170,15,coffeepot,1.88357211379,left,1,correct,path,1,path1,lion
171,15,mosquito,0.0669031026773,left,1,correct,path,2,path2,lion
172,15,canoe,0.183617754868,right,1,correct,path,3,path3,lion
173,15,goose,3.48356861222,right,1,correct,decision,1,decision1,lion
174,15,sailor,2.28354271271,right,1,correct,arm1,1,arm11,lion
175,15,cooker,0.633579811169,right,1,correct,arm1,2,arm12,lion
176,15,tooth,0.600250663643,left,1,correct,arm1,3,arm13,lion
177,15,crutches,24.2165152442,left,1,correct,decision,2,decision2,lion
178,15,stapler,0.966930451104,right,1,correct,arm2,1,arm21,lion
179,15,rose,0.150329358265,right,1,correct,arm2,2,arm22,lion
180,15,lion,0.366721745842,left,1,correct,arm2,3,arm23,lion
181,16,lion,3.50028797338,space,0,wrong,target,NaN,targetNaN,lion
182,16,coffeepot,2.05021996459,left,0,wrong,path,1,path1,lion
183,16,mosquito,0.150260534429,left,0,wrong,path,2,path2,lion
184,16,canoe,0.200258028985,right,0,wrong,path,3,path3,lion
185,16,domino,0.533773483854,right,0,wrong,decision,1,decision1,lion
186,16,ambulance,1.26703344539,right,0,wrong,arm1,1,arm11,lion
187,16,trunk,0.200422843976,left,0,wrong,arm1,2,arm12,lion
188,16,peach,0.0669815859874,left,0,wrong,arm1,3,arm13,lion
189,16,crutches,1.18355345892,left,0,wrong,decision,2,decision2,lion
190,16,stapler,0.533579992305,right,0,wrong,arm2,1,arm21,lion
191,16,rose,0.766983336769,right,0,wrong,arm2,2,arm22,lion
192,16,lion,0.133702667779,left,0,wrong,arm2,3,arm23,lion
193,17,bolt,22.6166895979,space,1,correct,target,NaN,targetNaN,bolt
194,17,coffeepot,0.800003984565,left,1,correct,path,1,path1,bolt
195,17,mosquito,0.116933801735,left,1,correct,path,2,path2,bolt
196,17,canoe,0.200343455042,right,1,correct,path,3,path3,bolt
197,17,domino,0.433599492419,right,1,correct,decision,1,decision1,bolt
198,17,ambulance,2.93356296746,right,1,correct,arm1,1,arm11,bolt
199,17,trunk,0.134369172243,left,1,correct,arm1,2,arm12,bolt
200,17,peach,0.13356984983,left,1,correct,arm1,3,arm13,bolt
201,17,garlic,1.83361325716,left,1,correct,decision,2,decision2,bolt
202,17,mug,1.46696063702,right,1,correct,arm2,1,arm21,bolt
203,17,branch,0.166911977314,left,1,correct,arm2,2,arm22,bolt
204,17,bolt,0.116893352621,right,1,correct,arm2,3,arm23,bolt
205,18,lion,0.383686820162,space,1,correct,target,NaN,targetNaN,lion
206,18,coffeepot,8.13347234944,left,1,correct,path,1,path1,lion
207,18,mosquito,0.0836496311531,left,1,correct,path,2,path2,lion
208,18,canoe,0.283568068902,right,1,correct,path,3,path3,lion
209,18,goose,5.21684366665,left,1,correct,decision,1,decision1,lion
210,18,sailor,1.56688770789,right,1,correct,arm1,1,arm11,lion
211,18,cooker,0.383558530128,right,1,correct,arm1,2,arm12,lion
212,18,tooth,0.100277830934,left,1,correct,arm1,3,arm13,lion
213,18,crutches,2.08364781999,left,1,correct,decision,2,decision2,lion
214,18,stapler,0.833371166314,right,1,correct,arm2,1,arm21,lion
215,18,rose,1.15023457457,right,1,correct,arm2,2,arm22,lion
216,18,lion,0.183613528818,left,1,correct,arm2,3,arm23,lion
217,19,lion,0.500766721641,space,1,correct,target,NaN,targetNaN,lion
218,19,coffeepot,0.833578241523,left,1,correct,path,1,path1,lion
219,19,mosquito,0.100392839202,left,1,correct,path,2,path2,lion
220,19,canoe,0.200232370989,right,1,correct,path,3,path3,lion
221,19,goose,1.03362285625,right,1,correct,decision,1,decision1,lion
222,19,sailor,0.900228084589,right,1,correct,arm1,1,arm11,lion
223,19,cooker,0.100280245795,right,1,correct,arm1,2,arm12,lion
224,19,tooth,0.13361120451,left,1,correct,arm1,3,arm13,lion
225,19,crutches,1.01724882171,right,1,correct,decision,2,decision2,lion
226,19,stapler,1.0169125509,right,1,correct,arm2,1,arm21,lion
227,19,rose,0.0668988766556,right,1,correct,arm2,2,arm22,lion
228,19,lion,0.250369022513,left,1,correct,arm2,3,arm23,lion
229,20,lion,0.367275958823,space,1,correct,target,NaN,targetNaN,lion
230,20,coffeepot,1.40022295297,left,1,correct,path,1,path1,lion
231,20,mosquito,0.366926104325,left,1,correct,path,2,path2,lion
232,20,canoe,0.113544529944,right,1,correct,path,3,path3,lion
233,20,goose,6.18356855185,left,1,correct,decision,1,decision1,lion
234,20,sailor,1.01694032189,right,1,correct,arm1,1,arm11,lion
235,20,cooker,0.0502670545538,right,1,correct,arm1,2,arm12,lion
236,20,tooth,0.166929183295,left,1,correct,arm1,3,arm13,lion
237,20,crutches,3.58355756418,right,1,correct,decision,2,decision2,lion
238,20,stapler,0.600234363257,right,1,correct,arm2,1,arm21,lion
239,20,rose,0.483575856837,right,1,correct,arm2,2,arm22,lion
240,20,lion,0.100235872553,left,1,correct,arm2,3,arm23,lion
241,21,bolt,0.300294976536,space,1,correct,target,NaN,targetNaN,bolt
242,21,coffeepot,0.750254617975,left,1,correct,path,1,path1,bolt
243,21,mosquito,0.0669079324289,left,1,correct,path,2,path2,bolt
244,21,canoe,0.283604291937,right,1,correct,path,3,path3,bolt
245,21,domino,1.66731405343,left,1,correct,decision,1,decision1,bolt
246,21,ambulance,0.783634477848,right,1,correct,arm1,1,arm11,bolt
247,21,trunk,0.117034622614,left,1,correct,arm1,2,arm12,bolt
248,21,peach,0.0169140601647,left,1,correct,arm1,3,arm13,bolt
249,21,garlic,1.00026412655,left,1,correct,decision,2,decision2,bolt
250,21,mug,0.500272276724,right,1,correct,arm2,1,arm21,bolt
251,21,branch,0.616972741554,left,1,correct,arm2,2,arm22,bolt
252,21,bolt,0.050224190607,right,1,correct,arm2,3,arm23,bolt
253,22,lion,16.0334951699,space,1,correct,target,NaN,targetNaN,lion
254,22,coffeepot,0.683577003918,left,1,correct,path,1,path1,lion
255,22,mosquito,0.0503763275046,left,1,correct,path,2,path2,lion
256,22,canoe,0.200235087716,right,1,correct,path,3,path3,lion
257,22,goose,0.417100790073,right,1,correct,decision,1,decision1,lion
258,22,sailor,0.850299112004,right,1,correct,arm1,1,arm11,lion
259,22,cooker,0.0502570932149,right,1,correct,arm1,2,arm12,lion
260,22,tooth,0.166952124564,left,1,correct,arm1,3,arm13,lion
261,22,crutches,1.31695064547,right,1,correct,decision,2,decision2,lion
262,22,stapler,0.850278585596,right,1,correct,arm2,1,arm21,lion
263,22,rose,0.0669012915459,right,1,correct,arm2,2,arm22,lion
264,22,lion,0.316971473716,left,1,correct,arm2,3,arm23,lion
265,23,lion,0.517152226821,space,1,correct,target,NaN,targetNaN,lion
266,23,coffeepot,0.750260051427,left,1,correct,path,1,path1,lion
267,23,mosquito,0.0335655030794,left,1,correct,path,2,path2,lion
268,23,canoe,0.11692051994,right,1,correct,path,3,path3,lion
269,23,goose,1.33359665493,right,1,correct,decision,1,decision1,lion
270,23,sailor,0.751158987288,right,1,correct,arm1,1,arm11,lion
271,23,cooker,0.0169089285773,right,1,correct,arm1,2,arm12,lion
272,23,tooth,0.133608487784,left,1,correct,arm1,3,arm13,lion
273,23,crutches,1.03361863026,left,1,correct,decision,2,decision2,lion
274,23,stapler,0.466977842967,right,1,correct,arm2,1,arm21,lion
275,23,rose,0.050358819688,right,1,correct,arm2,2,arm22,lion
276,23,lion,0.250304726564,left,1,correct,arm2,3,arm23,lion
277,24,lion,0.300390665798,space,1,correct,target,NaN,targetNaN,lion
278,24,coffeepot,1.56703139271,left,1,correct,path,1,path1,lion
279,24,mosquito,0.000255070801359,left,1,correct,path,2,path2,lion
280,24,canoe,0.113068498438,right,1,correct,path,3,path3,lion
281,24,goose,6.56682009148,left,1,correct,decision,1,decision1,lion
282,24,sailor,0.68356824998,right,1,correct,arm1,1,arm11,lion
283,24,cooker,0.0668937450682,right,1,correct,arm1,2,arm12,lion
284,24,tooth,0.266920550144,left,1,correct,arm1,3,arm13,lion
285,24,crutches,5.08356661996,left,1,correct,decision,2,decision2,lion
286,24,stapler,0.567144589819,right,1,correct,arm2,1,arm21,lion
287,24,rose,0.0503799498256,right,1,correct,arm2,2,arm22,lion
288,24,lion,0.250255221705,left,1,correct,arm2,3,arm23,lion
289,25,bolt,0.900397125573,space,1,correct,target,NaN,targetNaN,bolt
290,25,coffeepot,2.96690871727,left,1,correct,path,1,path1,bolt
291,25,mosquito,0.0670307889814,left,1,correct,path,2,path2,bolt
292,25,canoe,0.283614555141,right,1,correct,path,3,path3,bolt
293,25,domino,4.26706604613,left,1,correct,decision,1,decision1,bolt
294,25,ambulance,0.8340295206,right,1,correct,arm1,1,arm11,bolt
295,25,trunk,0.150233367109,left,1,correct,arm1,2,arm12,bolt
296,25,peach,0.0335760681482,left,1,correct,arm1,3,arm13,bolt
297,25,garlic,0.850388160383,left,1,correct,decision,2,decision2,bolt
298,25,mug,0.950314929389,right,1,correct,arm2,1,arm21,bolt
299,25,branch,0.283765786473,left,1,correct,arm2,2,arm22,bolt
300,25,bolt,0.150243932207,right,1,correct,arm2,3,arm23,bolt
301,26,lion,17.7834174413,space,1,correct,target,NaN,targetNaN,lion
302,26,coffeepot,0.716920036968,left,1,correct,path,1,path1,lion
303,26,mosquito,0.0336053484643,left,1,correct,path,2,path2,lion
304,26,canoe,0.26673852923,right,1,correct,path,3,path3,lion
305,26,goose,0.616910256736,left,1,correct,decision,1,decision1,lion
306,26,sailor,1.28404893013,right,1,correct,arm1,1,arm11,lion
307,26,cooker,0.0335839164618,right,1,correct,arm1,2,arm12,lion
308,26,tooth,0.16690292157,left,1,correct,arm1,3,arm13,lion
309,26,crutches,1.30026750735,right,1,correct,decision,2,decision2,lion
310,26,stapler,0.816918346565,right,1,correct,arm2,1,arm21,lion
311,26,rose,0.533584520192,right,1,correct,arm2,2,arm22,lion
312,26,lion,0.116897276806,left,1,correct,arm2,3,arm23,lion
313,27,lion,0.783673417638,space,1,correct,target,NaN,targetNaN,lion
314,27,coffeepot,0.717051043728,left,1,correct,path,1,path1,lion
315,27,mosquito,0.0335567491711,left,1,correct,path,2,path2,lion
316,27,canoe,0.150234574568,right,1,correct,path,3,path3,lion
317,27,goose,1.11695704487,left,1,correct,decision,1,decision1,lion
318,27,sailor,0.683946479199,right,1,correct,arm1,1,arm11,lion
319,27,cooker,0.0337248845899,right,1,correct,arm1,2,arm12,lion
320,27,tooth,0.200283083279,left,1,correct,arm1,3,arm13,lion
321,27,crutches,1.21701119837,right,1,correct,decision,2,decision2,lion
322,27,stapler,0.550564687437,right,1,correct,arm2,1,arm21,lion
323,27,rose,0.516899269074,right,1,correct,arm2,2,arm22,lion
324,27,lion,0.20024655835,left,1,correct,arm2,3,arm23,lion
325,28,lion,0.516985902592,space,1,correct,target,NaN,targetNaN,lion
326,28,coffeepot,0.583621860133,left,1,correct,path,1,path1,lion
327,28,mosquito,0.0502290203585,left,1,correct,path,2,path2,lion
328,28,canoe,0.116921425506,right,1,correct,path,3,path3,lion
329,28,goose,0.467017084593,left,1,correct,decision,1,decision1,lion
330,28,sailor,2.11689546568,right,1,correct,arm1,1,arm11,lion
331,28,cooker,0.433589229186,right,1,correct,arm1,2,arm12,lion
332,28,tooth,0.0836677426996,left,1,correct,arm1,3,arm13,lion
333,28,crutches,2.45027055612,right,1,correct,decision,2,decision2,lion
334,28,stapler,0.616923538561,right,1,correct,arm2,1,arm21,lion
335,28,rose,0.133591583668,right,1,correct,arm2,2,arm22,lion
336,28,lion,0.133631429082,left,1,correct,arm2,3,arm23,lion
337,29,bolt,10.0335854258,space,-1,miss,target,NaN,targetNaN,bolt
338,29,coffeepot,0.700278253556,left,-1,miss,path,1,path1,bolt
339,29,mosquito,0.0335787848744,left,-1,miss,path,2,path2,bolt
340,29,canoe,0.216725337988,right,-1,miss,path,3,path3,bolt
341,29,goose,20.9166060433,right,-1,miss,decision,1,decision1,bolt
342,29,sailor,0.950210788083,right,-1,miss,arm1,1,arm11,bolt
343,29,cooker,0.53357969044,right,-1,miss,arm1,2,arm12,bolt
344,29,tooth,0.117350367043,left,-1,miss,arm1,3,arm13,bolt
345,29,crutches,0.516910437873,left,-1,miss,decision,2,decision2,bolt
346,29,stapler,0.450346624595,right,-1,miss,arm2,1,arm21,bolt
347,29,rose,0.116950102121,right,-1,miss,arm2,2,arm22,bolt
348,29,lion,0.267038576974,left,-1,miss,arm2,3,arm23,bolt
349,30,lion,0.500313027704,space,1,correct,target,NaN,targetNaN,lion
350,30,coffeepot,2.13361452497,left,1,correct,path,1,path1,lion
351,30,mosquito,0.000448260485427,left,1,correct,path,2,path2,lion
352,30,canoe,0.113424691954,right,1,correct,path,3,path3,lion
353,30,goose,2.23364362417,left,1,correct,decision,1,decision1,lion
354,30,sailor,0.550302372052,right,1,correct,arm1,1,arm11,lion
355,30,cooker,0.0169095322781,right,1,correct,arm1,2,arm12,lion
356,30,tooth,0.133573774016,left,1,correct,arm1,3,arm13,lion
357,30,crutches,0.867688599945,right,1,correct,decision,2,decision2,lion
358,30,stapler,0.516972922662,right,1,correct,arm2,1,arm21,lion
359,30,rose,0.017034199991,right,1,correct,arm2,2,arm22,lion
360,30,lion,0.250345779379,left,1,correct,arm2,3,arm23,lion
361,31,lion,0.483663395949,space,1,correct,target,NaN,targetNaN,lion
362,31,coffeepot,1.98358129029,left,1,correct,path,1,path1,lion
363,31,mosquito,0.017027860973,left,1,correct,path,2,path2,lion
364,31,canoe,0.113502269669,right,1,correct,path,3,path3,lion
365,31,goose,0.550293920009,left,1,correct,decision,1,decision1,lion
366,31,sailor,0.616986627021,right,1,correct,arm1,1,arm11,lion
367,31,cooker,0.0335987075523,right,1,correct,arm1,2,arm12,lion
368,31,tooth,0.150387013302,left,1,correct,arm1,3,arm13,lion
369,31,crutches,0.717089983547,right,1,correct,decision,2,decision2,lion
370,31,stapler,0.667013401922,right,1,correct,arm2,1,arm21,lion
371,31,rose,0.0169315679814,right,1,correct,arm2,2,arm22,lion
372,31,lion,0.317009507969,left,1,correct,arm2,3,arm23,lion
373,32,bolt,0.433617905801,space,1,correct,target,NaN,targetNaN,bolt
374,32,coffeepot,1.98369780785,left,1,correct,path,1,path1,bolt
375,32,mosquito,0.0335751625535,left,1,correct,path,2,path2,bolt
376,32,canoe,0.21691188679,right,1,correct,path,3,path3,bolt
377,32,domino,0.400329811033,left,1,correct,decision,1,decision1,bolt
378,32,ambulance,0.867111747561,right,1,correct,arm1,1,arm11,bolt
379,32,trunk,0.383621618646,left,1,correct,arm1,2,arm12,bolt
380,32,peach,0.0507868556306,left,1,correct,arm1,3,arm13,bolt
381,32,garlic,1.13362146771,right,1,correct,decision,2,decision2,bolt
382,32,mug,0.783568370738,right,1,correct,arm2,1,arm21,bolt
383,32,branch,0.20026074574,left,1,correct,arm2,2,arm22,bolt
384,32,bolt,0.116903313989,right,1,correct,arm2,3,arm23,bolt
385,33,bolt,0.30037195055,space,1,correct,target,NaN,targetNaN,bolt
386,33,coffeepot,0.833586995461,left,1,correct,path,1,path1,bolt
387,33,mosquito,0.0335787848744,left,1,correct,path,2,path2,bolt
388,33,canoe,0.266939265392,right,1,correct,path,3,path3,bolt
389,33,domino,4.26691873895,right,1,correct,decision,1,decision1,bolt
390,33,ambulance,0.583658083196,right,1,correct,arm1,1,arm11,bolt
391,33,trunk,0.150247856334,left,1,correct,arm1,2,arm12,bolt
392,33,peach,0.0169128527341,left,1,correct,arm1,3,arm13,bolt
393,33,garlic,0.850308771478,right,1,correct,decision,2,decision2,bolt
394,33,mug,0.900379919622,right,1,correct,arm2,1,arm21,bolt
395,33,branch,0.0669012915459,left,1,correct,arm2,2,arm22,bolt
396,33,bolt,0.0668946506339,right,1,correct,arm2,3,arm23,bolt
397,34,lion,3.85024145694,space,1,correct,target,NaN,targetNaN,lion
398,34,coffeepot,0.616911766032,left,1,correct,path,1,path1,lion
399,34,mosquito,0.0335766718781,left,1,correct,path,2,path2,lion
400,34,canoe,0.233552160906,right,1,correct,path,3,path3,lion
401,34,goose,0.600288697868,left,1,correct,decision,1,decision1,lion
402,34,sailor,0.500013885525,right,1,correct,arm1,1,arm11,lion
403,34,cooker,0.0835566585883,right,1,correct,arm1,2,arm12,lion
404,34,tooth,0.133589470672,left,1,correct,arm1,3,arm13,lion
405,34,crutches,0.666921033087,left,1,correct,decision,2,decision2,lion
406,34,stapler,0.500302160741,right,1,correct,arm2,1,arm21,lion
407,34,rose,0.0168823649874,right,1,correct,arm2,2,arm22,lion
408,34,lion,0.283609423554,left,1,correct,arm2,3,arm23,lion
409,35,lion,0.183632545959,space,1,correct,target,NaN,targetNaN,lion
410,35,coffeepot,1.15004923317,left,1,correct,path,1,path1,lion
411,35,mosquito,0.000238770415308,left,1,correct,path,2,path2,lion
412,35,canoe,0.114105685643,right,1,correct,path,3,path3,lion
413,35,goose,1.11696519505,left,1,correct,decision,1,decision1,lion
414,35,sailor,0.583604956017,right,1,correct,arm1,1,arm11,lion
415,35,cooker,0.0169225122372,right,1,correct,arm1,2,arm12,lion
416,35,tooth,0.166921033117,left,1,correct,arm1,3,arm13,lion
417,35,crutches,0.450296817871,left,1,correct,decision,2,decision2,lion
418,35,stapler,0.567010866333,right,1,correct,arm2,1,arm21,lion
419,35,rose,0.0502658471523,right,1,correct,arm2,2,arm22,lion
420,35,lion,0.233600458363,left,1,correct,arm2,3,arm23,lion
421,36,lion,0.283933620027,space,1,correct,target,NaN,targetNaN,lion
422,36,coffeepot,0.966927130648,left,1,correct,path,1,path1,lion
423,36,mosquito,0.000250542914728,left,1,correct,path,2,path2,lion
424,36,canoe,0.183590587549,right,1,correct,path,3,path3,lion
425,36,goose,0.616982099164,right,1,correct,decision,1,decision1,lion
426,36,sailor,0.767325946654,right,1,correct,arm1,1,arm11,lion
427,36,cooker,0.033583614626,right,1,correct,arm1,2,arm12,lion
428,36,tooth,0.300088203163,left,1,correct,arm1,3,arm13,lion
429,36,crutches,1.45016550925,left,1,correct,decision,2,decision2,lion
430,36,stapler,0.333992995671,right,1,correct,arm2,1,arm21,lion
431,36,rose,0.0169339828717,right,1,correct,arm2,2,arm22,lion
432,36,lion,0.300543104531,left,1,correct,arm2,3,arm23,lion
433,37,bolt,0.266947717435,space,-1,miss,target,NaN,targetNaN,bolt
434,37,coffeepot,1.13352577842,left,-1,miss,path,1,path1,bolt
435,37,mosquito,0.0335685216705,left,-1,miss,path,2,path2,bolt
436,37,canoe,0.113444614632,right,-1,miss,path,3,path3,bolt
437,37,goose,13.4501431717,left,-1,miss,decision,1,decision1,bolt
438,37,sailor,0.61691991621,right,-1,miss,arm1,1,arm11,bolt
439,37,cooker,1.21690162359,right,-1,miss,arm1,2,arm12,bolt
440,37,tooth,0.550256489514,left,-1,miss,arm1,3,arm13,bolt
441,37,crutches,1.56701569606,right,-1,miss,decision,2,decision2,bolt
442,37,stapler,1.81692166702,right,-1,miss,arm2,1,arm21,bolt
443,37,rose,1.46689452988,right,-1,miss,arm2,2,arm22,bolt
444,37,lion,0.0669166863372,left,-1,miss,arm2,3,arm23,bolt
445,38,bolt,0.484282810387,space,1,correct,target,NaN,targetNaN,bolt
446,38,coffeepot,2.05100359031,left,1,correct,path,1,path1,bolt
447,38,mosquito,0.0335585603316,left,1,correct,path,2,path2,bolt
448,38,canoe,0.23357781893,right,1,correct,path,3,path3,bolt
449,38,domino,1.2503168009,right,1,correct,decision,1,decision1,bolt
450,38,ambulance,2.76692085198,right,1,correct,arm1,1,arm11,bolt
451,38,trunk,0.16690473273,left,1,correct,arm1,2,arm12,bolt
452,38,peach,0.0502598099702,left,1,correct,arm1,3,arm13,bolt
453,38,garlic,7.95023493678,left,1,correct,decision,2,decision2,bolt
454,38,mug,0.333576128527,right,1,correct,arm2,1,arm21,bolt
455,38,branch,0.133614826831,left,1,correct,arm2,2,arm22,bolt
456,38,bolt,0.117038848635,right,1,correct,arm2,3,arm23,bolt
457,39,bolt,0.916972198203,space,1,correct,target,NaN,targetNaN,bolt
458,39,coffeepot,2.55021060698,left,1,correct,path,1,path1,bolt
459,39,mosquito,0.0335784830095,left,1,correct,path,2,path2,bolt
460,39,canoe,0.113536681602,right,1,correct,path,3,path3,bolt
461,39,domino,0.933838262805,left,1,correct,decision,1,decision1,bolt
462,39,ambulance,12.250085577,right,1,correct,arm1,1,arm11,bolt
463,39,trunk,0.166895978822,left,1,correct,arm1,2,arm12,bolt
464,39,peach,0.083577486861,left,1,correct,arm1,3,arm13,bolt
465,39,garlic,3.98350914603,right,1,correct,decision,2,decision2,bolt
466,39,mug,0.566922421654,right,1,correct,arm2,1,arm21,bolt
467,39,branch,0.116730046982,left,1,correct,arm2,2,arm22,bolt
468,39,bolt,0.0672994434135,right,1,correct,arm2,3,arm23,bolt
469,40,lion,0.48362445613,space,1,correct,target,NaN,targetNaN,lion
470,40,coffeepot,0.683587568958,left,1,correct,path,1,path1,lion
471,40,mosquito,0.0502302277891,left,1,correct,path,2,path2,lion
472,40,canoe,0.266908173915,right,1,correct,path,3,path3,lion
473,40,goose,8.71681287707,left,1,correct,decision,1,decision1,lion
474,40,sailor,9.10022198706,right,1,correct,arm1,1,arm11,lion
475,40,cooker,0.0169107397378,right,1,correct,arm1,2,arm12,lion
476,40,tooth,0.183602360048,left,1,correct,arm1,3,arm13,lion
477,40,crutches,2.25036147604,right,1,correct,decision,2,decision2,lion
478,40,stapler,0.483411645604,right,1,correct,arm2,1,arm21,lion
479,40,rose,0.0337064711784,right,1,correct,arm2,2,arm22,lion
480,40,lion,0.183583946666,left,1,correct,arm2,3,arm23,lion
481,41,bolt,0.200303307822,space,-1,miss,target,NaN,targetNaN,bolt
482,41,coffeepot,0.783591915737,left,-1,miss,path,1,path1,bolt
483,41,mosquito,0.0336986228649,left,-1,miss,path,2,path2,bolt
484,41,canoe,0.217013915069,right,-1,miss,path,3,path3,bolt
485,41,goose,2.36705499809,right,-1,miss,decision,1,decision1,bolt
486,41,sailor,1.28423125291,right,-1,miss,arm1,1,arm11,bolt
487,41,cooker,0.0834319908754,right,-1,miss,arm1,2,arm12,bolt
488,41,tooth,0.800209852314,left,-1,miss,arm1,3,arm13,bolt
489,41,crutches,0.300793647446,right,-1,miss,decision,2,decision2,bolt
490,41,stapler,0.366957799532,right,-1,miss,arm2,1,arm21,bolt
491,41,rose,1.08412807752,right,-1,miss,arm2,2,arm22,bolt
492,41,lion,0.683608699095,left,-1,miss,arm2,3,arm23,bolt
493,42,bolt,2.46699323776,space,1,correct,target,NaN,targetNaN,bolt
494,42,coffeepot,0.600252172939,left,1,correct,path,1,path1,bolt
495,42,mosquito,0.0502269073622,left,1,correct,path,2,path2,bolt
496,42,canoe,0.300240038225,right,1,correct,path,3,path3,bolt
497,42,domino,2.11750672993,right,1,correct,decision,1,decision1,bolt
498,42,ambulance,0.783611838444,right,1,correct,arm1,1,arm11,bolt
499,42,trunk,0.100236778118,left,1,correct,arm1,2,arm12,bolt
500,42,peach,0.100238287414,left,1,correct,arm1,3,arm13,bolt
501,42,garlic,0.716980106896,right,1,correct,decision,2,decision2,bolt
502,42,mug,0.651080383221,right,1,correct,arm2,1,arm21,bolt
503,42,branch,0.0669517019705,left,1,correct,arm2,2,arm22,bolt
504,42,bolt,0.133699347323,right,1,correct,arm2,3,arm23,bolt
505,43,bolt,0.583677402174,space,1,correct,target,NaN,targetNaN,bolt
506,43,coffeepot,0.667063208646,left,1,correct,path,1,path1,bolt
507,43,mosquito,0.0335772755789,left,1,correct,path,2,path2,bolt
508,43,canoe,0.867536463047,right,1,correct,path,3,path3,bolt
509,43,domino,0.833821841661,left,1,correct,decision,1,decision1,bolt
510,43,ambulance,0.583802975481,right,1,correct,arm1,1,arm11,bolt
511,43,trunk,0.100257908227,left,1,correct,arm1,2,arm12,bolt
512,43,peach,0.217029008054,left,1,correct,arm1,3,arm13,bolt
513,43,garlic,0.667047210125,left,1,correct,decision,2,decision2,bolt
514,43,mug,0.383583282586,right,1,correct,arm2,1,arm21,bolt
515,43,branch,0.583836179954,left,1,correct,arm2,2,arm22,bolt
516,43,bolt,0.167220175266,right,1,correct,arm2,3,arm23,bolt
517,44,bolt,3.65022823549,space,1,correct,target,NaN,targetNaN,bolt
518,44,coffeepot,0.683562212827,left,1,correct,path,1,path1,bolt
519,44,mosquito,0.0501734783174,left,1,correct,path,2,path2,bolt
520,44,canoe,0.33356978948,right,1,correct,path,3,path3,bolt
521,44,domino,0.833627142652,right,1,correct,decision,1,decision1,bolt
522,44,ambulance,2.86670182316,right,1,correct,arm1,1,arm11,bolt
523,44,trunk,0.166910769913,left,1,correct,arm1,2,arm12,bolt
524,44,peach,0.0669028008415,left,1,correct,arm1,3,arm13,bolt
525,44,garlic,13.1502584214,right,1,correct,decision,2,decision2,bolt
526,44,mug,0.783585274854,right,1,correct,arm2,1,arm21,bolt
527,44,branch,0.116888824763,left,1,correct,arm2,2,arm22,bolt
528,44,bolt,0.0669166863372,right,1,correct,arm2,3,arm23,bolt
529,45,lion,0.733633662836,space,1,correct,target,NaN,targetNaN,lion
530,45,coffeepot,1.38364244692,left,1,correct,path,1,path1,lion
531,45,mosquito,0.000276200909866,left,1,correct,path,2,path2,lion
532,45,canoe,0.233581441251,right,1,correct,path,3,path3,lion
533,45,goose,1.08363182147,right,1,correct,decision,1,decision1,lion
534,45,sailor,0.766734303179,right,1,correct,arm1,1,arm11,lion
535,45,cooker,0.000274087884463,right,1,correct,arm1,2,arm12,lion
536,45,tooth,0.383594753221,left,1,correct,arm1,3,arm13,lion
537,45,crutches,4.11688007085,right,1,correct,decision,2,decision2,lion
538,45,stapler,0.733585365408,right,1,correct,arm2,1,arm21,lion
539,45,rose,0.100209912693,right,1,correct,arm2,2,arm22,lion
540,45,lion,0.183681145223,left,1,correct,arm2,3,arm23,lion
541,46,lion,1.83362533149,space,1,correct,target,NaN,targetNaN,lion
542,46,coffeepot,0.800357461325,left,1,correct,path,1,path1,lion
543,46,mosquito,0.03355373058,left,1,correct,path,2,path2,lion
544,46,canoe,0.113680970157,right,1,correct,path,3,path3,lion
545,46,goose,1.78365198564,right,1,correct,decision,1,decision1,lion
546,46,sailor,0.650429575413,right,1,correct,arm1,1,arm11,lion
547,46,cooker,0.000423508055974,right,1,correct,arm1,2,arm12,lion
548,46,tooth,0.233582648652,left,1,correct,arm1,3,arm13,lion
549,46,crutches,0.966970598325,left,1,correct,decision,2,decision2,lion
550,46,stapler,0.600338202727,right,1,correct,arm2,1,arm21,lion
551,46,rose,0.0169602445967,right,1,correct,arm2,2,arm22,lion
552,46,lion,0.234360237228,left,1,correct,arm2,3,arm23,lion
553,47,bolt,1.71697074926,space,1,correct,target,NaN,targetNaN,bolt
554,47,coffeepot,0.567040750349,left,1,correct,path,1,path1,bolt
555,47,mosquito,0.0335627863533,left,1,correct,path,2,path2,bolt
556,47,canoe,0.233602571359,right,1,correct,path,3,path3,bolt
557,47,domino,2.08365083858,right,1,correct,decision,1,decision1,bolt
558,47,ambulance,0.716940563376,right,1,correct,arm1,1,arm11,bolt
559,47,trunk,0.0668964617944,left,1,correct,arm1,2,arm12,bolt
560,47,peach,0.21704228982,left,1,correct,arm1,3,arm13,bolt
561,47,garlic,1.26697548846,left,1,correct,decision,2,decision2,bolt
562,47,mug,0.350255644298,right,1,correct,arm2,1,arm21,bolt
563,47,branch,0.233626720088,left,1,correct,arm2,2,arm22,bolt
564,47,bolt,0.100287792273,right,1,correct,arm2,3,arm23,bolt
565,48,bolt,2.9835900442,space,1,correct,target,NaN,targetNaN,bolt
566,48,coffeepot,2.0002448076,left,1,correct,path,1,path1,bolt
567,48,mosquito,0.034213594161,left,1,correct,path,2,path2,bolt
568,48,canoe,0.316928609769,right,1,correct,path,3,path3,bolt
569,48,domino,6.08348964594,left,1,correct,decision,1,decision1,bolt
570,48,ambulance,0.533570936561,right,1,correct,arm1,1,arm11,bolt
571,48,trunk,0.083554847457,left,1,correct,arm1,2,arm12,bolt
572,48,peach,0.0835684310878,left,1,correct,arm1,3,arm13,bolt
573,48,garlic,0.617084731173,right,1,correct,decision,2,decision2,bolt
574,48,mug,0.600373520196,right,1,correct,arm2,1,arm21,bolt
575,48,branch,0.0836221619975,left,1,correct,arm2,2,arm22,bolt
576,48,bolt,0.0669181956328,right,1,correct,arm2,3,arm23,bolt
577,49,bolt,0.700075706205,space,1,correct,target,NaN,targetNaN,bolt
578,49,coffeepot,0.650270495767,left,1,correct,path,1,path1,bolt
579,49,mosquito,0.0169348884374,left,1,correct,path,2,path2,bolt
580,49,canoe,0.200241728628,right,1,correct,path,3,path3,bolt
581,49,domino,2.06700090499,left,1,correct,decision,1,decision1,bolt
582,49,ambulance,0.500228809047,right,1,correct,arm1,1,arm11,bolt
583,49,trunk,0.0502000418783,left,1,correct,arm1,2,arm12,bolt
584,49,peach,0.0502543765178,left,1,correct,arm1,3,arm13,bolt
585,49,garlic,0.933647186088,right,1,correct,decision,2,decision2,bolt
586,49,mug,0.650252987951,right,1,correct,arm2,1,arm21,bolt
587,49,branch,0.0335941796657,left,1,correct,arm2,2,arm22,bolt
588,49,bolt,0.200077819231,right,1,correct,arm2,3,arm23,bolt
589,50,bolt,0.583737170236,space,1,correct,target,NaN,targetNaN,bolt
590,50,coffeepot,0.53363462878,left,1,correct,path,1,path1,bolt
591,50,mosquito,0.0335639937839,left,1,correct,path,2,path2,bolt
592,50,canoe,0.200251388102,right,1,correct,path,3,path3,bolt
593,50,domino,1.53360897079,left,1,correct,decision,1,decision1,bolt
594,50,ambulance,1.38370100752,right,1,correct,arm1,1,arm11,bolt
595,50,trunk,0.083735359105,left,1,correct,arm1,2,arm12,bolt
596,50,peach,0.0170912513277,left,1,correct,arm1,3,arm13,bolt
597,50,garlic,0.950301345758,left,1,correct,decision,2,decision2,bolt
598,50,mug,0.400557412679,right,1,correct,arm2,1,arm21,bolt
599,50,branch,0.16712780646,left,1,correct,arm2,2,arm22,bolt
600,50,bolt,0.550361838279,right,1,correct,arm2,3,arm23,bolt
