pic_index,trial_num,pic_name,rt,resp,feedback_code,feedback,segment,segment_index,pic_type,trial_target
1,1,arc,11.766801014,space,-1,miss,target,NaN,targetNaN,arc
2,1,trophy,5.66683289033,right,-1,miss,path,1,path1,arc
3,1,astronaut,4.11688731547,right,-1,miss,path,2,path2,arc
4,1,robot,4.56684906996,right,-1,miss,path,3,path3,arc
5,1,watch,11.5667449286,right,-1,miss,decision,1,decision1,arc
6,1,clover,2.28357893581,left,-1,miss,arm1,1,arm11,arc
7,1,radio,1.13355868106,right,-1,miss,arm1,2,arm12,arc
8,1,wing,1.46689362431,left,-1,miss,arm1,3,arm13,arc
9,1,stepladder,12.3000719028,right,-1,miss,decision,2,decision2,arc
10,1,calc,8.28348566141,right,-1,miss,arm2,1,arm21,arc
11,1,tongue,2.66667441439,right,-1,miss,arm2,2,arm22,arc
12,1,beaver,1.46669922717,left,-1,miss,arm2,3,arm23,arc
13,2,beaver,5.36697681661,space,1,correct,target,NaN,targetNaN,beaver
14,2,trophy,3.86687237344,right,1,correct,path,1,path1,beaver
15,2,astronaut,1.75026880534,right,1,correct,path,2,path2,beaver
16,2,robot,1.15023819686,right,1,correct,path,3,path3,beaver
17,2,pigeon,10.0667645495,right,1,correct,decision,1,decision1,beaver
18,2,bus,12.3834094118,right,1,correct,arm1,1,arm11,beaver
19,2,deer,1.25024073248,left,1,correct,arm1,2,arm12,beaver
20,2,fist,2.90024830913,right,1,correct,arm1,3,arm13,beaver
21,2,stepladder,2.20032715469,left,1,correct,decision,2,decision2,beaver
22,2,calc,4.60018576396,right,1,correct,arm2,1,arm21,beaver
23,2,tongue,1.38356003945,right,1,correct,arm2,2,arm22,beaver
24,2,beaver,0.567099009117,left,1,correct,arm2,3,arm23,beaver
25,3,beaver,6.68354259199,space,1,correct,target,NaN,targetNaN,beaver
26,3,trophy,1.26691119251,right,1,correct,path,1,path1,beaver
27,3,astronaut,0.700234785851,right,1,correct,path,2,path2,beaver
28,3,robot,0.366904672352,right,1,correct,path,3,path3,beaver
29,3,pigeon,2.6502599307,right,1,correct,decision,1,decision1,beaver
30,3,bus,7.683491276,right,1,correct,arm1,1,arm11,beaver
31,3,deer,2.05024109469,left,1,correct,arm1,2,arm12,beaver
32,3,fist,0.833583373111,right,1,correct,arm1,3,arm13,beaver
33,3,stepladder,8.1501527708,left,1,correct,decision,2,decision2,beaver
34,3,calc,1.48359396838,right,1,correct,arm2,1,arm21,beaver
35,3,tongue,0.734056567162,right,1,correct,arm2,2,arm22,beaver
36,3,beaver,0.350271039119,left,1,correct,arm2,3,arm23,beaver
37,4,beaver,1.88371368562,space,-1,miss,target,NaN,targetNaN,beaver
38,4,trophy,1.45026814129,right,-1,miss,path,1,path1,beaver
39,4,astronaut,0.300247282808,right,-1,miss,path,2,path2,beaver
40,4,robot,0.266692344798,right,-1,miss,path,3,path3,beaver
41,4,pigeon,1.83338716484,right,-1,miss,decision,1,decision1,beaver
42,4,bus,4.91686443455,right,-1,miss,arm1,1,arm11,beaver
43,4,deer,0.683577909454,left,-1,miss,arm1,2,arm12,beaver
44,4,fist,0.266895193985,right,-1,miss,arm1,3,arm13,beaver
45,4,holly,2.55025860254,left,-1,miss,decision,2,decision2,beaver
46,4,match,3.48355653786,right,-1,miss,arm2,1,arm21,beaver
47,4,baby,2.35023692908,right,-1,miss,arm2,2,arm22,beaver
48,4,arc,1.16709973358,left,-1,miss,arm2,3,arm23,beaver
49,5,beaver,4.71693452619,space,-1,miss,target,NaN,targetNaN,beaver
50,5,trophy,0.933571117639,right,-1,miss,path,1,path1,beaver
51,5,astronaut,0.666927372135,right,-1,miss,path,2,path2,beaver
52,5,robot,1.1337310425,right,-1,miss,path,3,path3,beaver
53,5,pigeon,3.23333874665,left,-1,miss,decision,1,decision1,beaver
54,5,bus,6.38344986091,right,-1,miss,arm1,1,arm11,beaver
55,5,deer,0.516944246046,left,-1,miss,arm1,2,arm12,beaver
56,5,fist,0.266922361276,right,-1,miss,arm1,3,arm13,beaver
57,5,holly,2.45052773991,left,-1,miss,decision,2,decision2,beaver
58,5,match,2.05022781293,right,-1,miss,arm2,1,arm21,beaver
59,5,baby,0.816936759948,right,-1,miss,arm2,2,arm22,beaver
60,5,arc,0.366953271645,left,-1,miss,arm2,3,arm23,beaver
61,6,beaver,1.63364742757,space,1,correct,target,NaN,targetNaN,beaver
62,6,trophy,0.750463202479,right,1,correct,path,1,path1,beaver
63,6,astronaut,0.183693823288,right,1,correct,path,2,path2,beaver
64,6,robot,0.167051738012,right,1,correct,path,3,path3,beaver
65,6,pigeon,3.35022394912,right,1,correct,decision,1,decision1,beaver
66,6,bus,2.28366496559,right,1,correct,arm1,1,arm11,beaver
67,6,deer,0.650264458585,left,1,correct,arm1,2,arm12,beaver
68,6,fist,0.300243660517,right,1,correct,arm1,3,arm13,beaver
69,6,stepladder,3.43355753401,right,1,correct,decision,2,decision2,beaver
70,6,calc,6.10016644499,right,1,correct,arm2,1,arm21,beaver
71,6,tongue,0.850257757324,right,1,correct,arm2,2,arm22,beaver
72,6,beaver,0.266903947893,left,1,correct,arm2,3,arm23,beaver
73,7,arc,1.26694590627,space,0,wrong,target,NaN,targetNaN,arc
74,7,trophy,0.816917742835,right,0,wrong,path,1,path1,arc
75,7,astronaut,0.417559011927,right,0,wrong,path,2,path2,arc
76,7,robot,0.283606404962,right,0,wrong,path,3,path3,arc
77,7,pigeon,5.28354693876,right,0,wrong,decision,1,decision1,arc
78,7,bus,1.13358916884,right,0,wrong,arm1,1,arm11,arc
79,7,deer,0.283602480777,left,0,wrong,arm1,2,arm12,arc
80,7,fist,0.233565744566,right,0,wrong,arm1,3,arm13,arc
81,7,holly,2.5002915957,right,0,wrong,decision,2,decision2,arc
82,7,match,4.01687119619,right,0,wrong,arm2,1,arm21,arc
83,7,baby,0.916937786271,right,0,wrong,arm2,2,arm22,arc
84,7,arc,1.01691919175,left,0,wrong,arm2,3,arm23,arc
85,8,beaver,6.10028115139,space,-1,miss,target,NaN,targetNaN,beaver
86,8,trophy,0.800236415904,right,-1,miss,path,1,path1,beaver
87,8,astronaut,0.433620924392,right,-1,miss,path,2,path2,beaver
88,8,robot,0.250268805365,right,-1,miss,path,3,path3,beaver
89,8,pigeon,2.50027167302,right,-1,miss,decision,1,decision1,beaver
90,8,bus,2.13335130399,right,-1,miss,arm1,1,arm11,beaver
91,8,deer,0.150205596117,left,-1,miss,arm1,2,arm12,beaver
92,8,fist,0.13357226472,right,-1,miss,arm1,3,arm13,beaver
93,8,holly,1.43370665229,right,-1,miss,decision,2,decision2,beaver
94,8,match,1.48356076388,right,-1,miss,arm2,1,arm21,beaver
95,8,baby,0.233598949068,right,-1,miss,arm2,2,arm22,beaver
96,8,arc,0.18356704255,left,-1,miss,arm2,3,arm23,beaver
97,9,arc,0.800291354215,space,1,correct,target,NaN,targetNaN,arc
98,9,trophy,0.800282298442,right,1,correct,path,1,path1,arc
99,9,astronaut,0.200232974719,right,1,correct,path,2,path2,arc
100,9,robot,0.166912581044,right,1,correct,path,3,path3,arc
101,9,watch,1.90025706304,left,1,correct,decision,1,decision1,arc
102,9,clover,3.28341623387,left,1,correct,arm1,1,arm11,arc
103,9,radio,0.866967157141,right,1,correct,arm1,2,arm12,arc
104,9,wing,1.38357513238,left,1,correct,arm1,3,arm13,arc
105,9,holly,3.86753585932,left,1,correct,decision,2,decision2,arc
106,9,match,1.08358593893,right,1,correct,arm2,1,arm21,arc
107,9,baby,0.383576641674,right,1,correct,arm2,2,arm22,arc
108,9,arc,0.183589078282,left,1,correct,arm2,3,arm23,arc
109,10,arc,1.00028555855,space,-1,miss,target,NaN,targetNaN,arc
110,10,trophy,0.750262466347,right,-1,miss,path,1,path1,arc
111,10,astronaut,0.150232763408,right,-1,miss,path,2,path2,arc
112,10,robot,0.183605982369,right,-1,miss,path,3,path3,arc
113,10,pigeon,6.15026023256,right,-1,miss,decision,1,decision1,arc
114,10,bus,1.3335749211,right,-1,miss,arm1,1,arm11,arc
115,10,deer,0.933581380843,left,-1,miss,arm1,2,arm12,arc
116,10,fist,0.450070423685,right,-1,miss,arm1,3,arm13,arc
117,10,stepladder,2.05032772821,right,-1,miss,decision,2,decision2,arc
118,10,calc,3.95019841188,right,-1,miss,arm2,1,arm21,arc
119,10,tongue,0.517001599248,right,-1,miss,arm2,2,arm22,arc
120,10,beaver,0.333571298775,left,-1,miss,arm2,3,arm23,arc
121,11,beaver,0.633642295987,space,-1,miss,target,NaN,targetNaN,beaver
122,11,trophy,0.567106857459,right,-1,miss,path,1,path1,beaver
123,11,astronaut,0.117086844199,right,-1,miss,path,2,path2,beaver
124,11,robot,0.0835913723859,right,-1,miss,path,3,path3,beaver
125,11,pigeon,4.15042866982,left,-1,miss,decision,1,decision1,beaver
126,11,bus,3.45022950333,right,-1,miss,arm1,1,arm11,beaver
127,11,deer,0.417143050348,left,-1,miss,arm1,2,arm12,beaver
128,11,fist,0.216902529181,right,-1,miss,arm1,3,arm13,beaver
129,11,holly,3.58359831516,right,-1,miss,decision,2,decision2,beaver
130,11,match,2.36691131326,right,-1,miss,arm2,1,arm21,beaver
131,11,baby,0.500271069293,right,-1,miss,arm2,2,arm22,beaver
132,11,arc,0.166893865797,left,-1,miss,arm2,3,arm23,beaver
133,12,arc,0.766964923387,space,1,correct,target,NaN,targetNaN,arc
134,12,trophy,0.567076973413,right,1,correct,path,1,path1,arc
135,12,astronaut,0.0836294066103,right,1,correct,path,2,path2,arc
136,12,robot,0.0502278129279,right,1,correct,path,3,path3,arc
137,12,watch,1.68363828125,left,1,correct,decision,1,decision1,arc
138,12,clover,2.58359257982,left,1,correct,arm1,1,arm11,arc
139,12,radio,0.4667218666,right,1,correct,arm1,2,arm12,arc
140,12,wing,0.567021733237,left,1,correct,arm1,3,arm13,arc
141,12,holly,2.70027523497,right,1,correct,decision,2,decision2,arc
142,12,match,5.88353287213,right,1,correct,arm2,1,arm21,arc
143,12,baby,0.283617875597,right,1,correct,arm2,2,arm22,arc
144,12,arc,0.217174805905,left,1,correct,arm2,3,arm23,arc
145,13,beaver,2.26693564307,space,-1,miss,target,NaN,targetNaN,beaver
146,13,trophy,0.700238106307,right,-1,miss,path,1,path1,beaver
147,13,astronaut,0.466923810192,right,-1,miss,path,2,path2,beaver
148,13,robot,0.250219602371,right,-1,miss,path,3,path3,beaver
149,13,pigeon,4.0841839214,left,-1,miss,decision,1,decision1,beaver
150,13,bus,2.08358654263,right,-1,miss,arm1,1,arm11,beaver
151,13,deer,0.250232884136,left,-1,miss,arm1,2,arm12,beaver
152,13,fist,0.233596534177,right,-1,miss,arm1,3,arm13,beaver
153,13,holly,0.966941619874,right,-1,miss,decision,2,decision2,beaver
154,13,match,2.46704425191,right,-1,miss,arm2,1,arm21,beaver
155,13,baby,0.267114041693,right,-1,miss,arm2,2,arm22,beaver
156,13,arc,0.383571208222,left,-1,miss,arm2,3,arm23,beaver
157,14,beaver,1.36696444041,space,-1,miss,target,NaN,targetNaN,beaver
158,14,trophy,2.01703721861,right,-1,miss,path,1,path1,beaver
159,14,astronaut,0.0835829203425,right,-1,miss,path,2,path2,beaver
160,14,robot,0.083581109182,right,-1,miss,path,3,path3,beaver
161,14,pigeon,1.8336687992,right,-1,miss,decision,1,decision1,beaver
162,14,bus,4.15019140873,right,-1,miss,arm1,1,arm11,beaver
163,14,deer,0.516937605164,left,-1,miss,arm1,2,arm12,beaver
164,14,fist,0.200269197783,right,-1,miss,arm1,3,arm13,beaver
165,14,holly,2.40026521325,right,-1,miss,decision,2,decision2,beaver
166,14,match,1.05024652818,right,-1,miss,arm2,1,arm21,beaver
167,14,baby,0.250451731845,right,-1,miss,arm2,2,arm22,beaver
168,14,arc,0.217045912141,left,-1,miss,arm2,3,arm23,beaver
169,15,beaver,3.88356456734,space,1,correct,target,NaN,targetNaN,beaver
170,15,trophy,0.966934677126,right,1,correct,path,1,path1,beaver
171,15,astronaut,0.150251478655,right,1,correct,path,2,path2,beaver
172,15,robot,0.200244143489,right,1,correct,path,3,path3,beaver
173,15,pigeon,2.23441336438,left,1,correct,decision,1,decision1,beaver
174,15,bus,3.71692094253,right,1,correct,arm1,1,arm11,beaver
175,15,deer,0.716945393127,left,1,correct,arm1,2,arm12,beaver
176,15,fist,0.283579539508,right,1,correct,arm1,3,arm13,beaver
177,15,stepladder,1.35096923876,right,1,correct,decision,2,decision2,beaver
178,15,calc,3.76690334416,right,1,correct,arm2,1,arm21,beaver
179,15,tongue,0.550064507261,right,1,correct,arm2,2,arm22,beaver
180,15,beaver,1.6002325521,left,1,correct,arm2,3,arm23,beaver
181,16,arc,6.8668183407,space,-1,miss,target,NaN,targetNaN,arc
182,16,trophy,0.600273303047,right,-1,miss,path,1,path1,arc
183,16,astronaut,0.0502564895141,right,-1,miss,path,2,path2,arc
184,16,robot,0.0168763278052,right,-1,miss,path,3,path3,arc
185,16,pigeon,2.06693268486,right,-1,miss,decision,1,decision1,arc
186,16,bus,5.3171495705,right,-1,miss,arm1,1,arm11,arc
187,16,deer,0.783571691194,left,-1,miss,arm1,2,arm12,arc
188,16,fist,0.25025612727,right,-1,miss,arm1,3,arm13,arc
189,16,stepladder,1.20029515764,right,-1,miss,decision,2,decision2,arc
190,16,calc,4.55019460843,right,-1,miss,arm2,1,arm21,arc
191,16,tongue,0.63359882831,right,-1,miss,arm2,2,arm22,arc
192,16,beaver,0.16690473273,left,-1,miss,arm2,3,arm23,arc
193,17,beaver,0.833663063881,space,1,correct,target,NaN,targetNaN,beaver
194,17,trophy,0.583609785768,right,1,correct,path,1,path1,beaver
195,17,astronaut,0.0502359631064,right,1,correct,path,2,path2,beaver
196,17,robot,0.0173707726935,right,1,correct,path,3,path3,beaver
197,17,pigeon,1.06698369901,right,1,correct,decision,1,decision1,beaver
198,17,bus,2.38353830558,right,1,correct,arm1,1,arm11,beaver
199,17,deer,0.750261258887,left,1,correct,arm1,2,arm12,beaver
200,17,fist,0.200236295175,right,1,correct,arm1,3,arm13,beaver
201,17,stepladder,0.983671847964,left,1,correct,decision,2,decision2,beaver
202,17,calc,4.76686530994,right,1,correct,arm2,1,arm21,beaver
203,17,tongue,0.266903344163,right,1,correct,arm2,2,arm22,beaver
204,17,beaver,0.183568551845,left,1,correct,arm2,3,arm23,beaver
205,18,beaver,0.650364373869,space,1,correct,target,NaN,targetNaN,beaver
206,18,trophy,0.566918799334,right,1,correct,path,1,path1,beaver
207,18,astronaut,0.0836562720651,right,1,correct,path,2,path2,beaver
208,18,robot,0.0339630512754,right,1,correct,path,3,path3,beaver
209,18,pigeon,0.616947385366,right,1,correct,decision,1,decision1,beaver
210,18,bus,1.48376934842,right,1,correct,arm1,1,arm11,beaver
211,18,deer,0.167019439104,left,1,correct,arm1,2,arm12,beaver
212,18,fist,0.150075193058,right,1,correct,arm1,3,arm13,beaver
213,18,stepladder,0.9002830229,right,1,correct,decision,2,decision2,beaver
214,18,calc,1.08359378725,right,1,correct,arm2,1,arm21,beaver
215,18,tongue,0.233689808578,right,1,correct,arm2,2,arm22,beaver
216,18,beaver,0.183572174166,left,1,correct,arm2,3,arm23,beaver
217,19,beaver,0.433624546684,space,1,correct,target,NaN,targetNaN,beaver
218,19,trophy,0.6002545878,right,1,correct,path,1,path1,beaver
219,19,astronaut,0.133566227538,right,1,correct,path,2,path2,beaver
220,19,robot,0.10026877519,right,1,correct,path,3,path3,beaver
221,19,pigeon,1.31691532797,right,1,correct,decision,1,decision1,beaver
222,19,bus,2.53357969044,right,1,correct,arm1,1,arm11,beaver
223,19,deer,0.183603869344,left,1,correct,arm1,2,arm12,beaver
224,19,fist,0.150235178269,right,1,correct,arm1,3,arm13,beaver
225,19,stepladder,0.683648242586,right,1,correct,decision,2,decision2,beaver
226,19,calc,0.667030909739,right,1,correct,arm2,1,arm21,beaver
227,19,tongue,0.083659894357,right,1,correct,arm2,2,arm22,beaver
228,19,beaver,0.216986445943,left,1,correct,arm2,3,arm23,beaver
229,20,arc,1.03368141691,space,1,correct,target,NaN,targetNaN,arc
230,20,trophy,0.783595236193,right,1,correct,path,1,path1,arc
231,20,astronaut,0.083581109182,right,1,correct,path,2,path2,arc
232,20,robot,0.116984212189,right,1,correct,path,3,path3,arc
233,20,watch,3.40019427639,right,1,correct,decision,1,decision1,arc
234,20,clover,2.36689199429,left,1,correct,arm1,1,arm11,arc
235,20,radio,0.666953331995,right,1,correct,arm1,2,arm12,arc
236,20,wing,0.750241034344,left,1,correct,arm1,3,arm13,arc
237,20,holly,2.91686654757,left,1,correct,decision,2,decision2,arc
238,20,match,1.95003118203,right,1,correct,arm2,1,arm21,arc
239,20,baby,0.750228054385,right,1,correct,arm2,2,arm22,arc
240,20,arc,0.683586663392,left,1,correct,arm2,3,arm23,arc
241,21,beaver,0.85032597743,space,1,correct,target,NaN,targetNaN,beaver
242,21,trophy,7.11681305818,right,1,correct,path,1,path1,beaver
243,21,astronaut,0.100227118644,right,1,correct,path,2,path2,beaver
244,21,robot,0.0335579566017,right,1,correct,path,3,path3,beaver
245,21,pigeon,1.21709903932,left,1,correct,decision,1,decision1,beaver
246,21,bus,0.716924263019,right,1,correct,arm1,1,arm11,beaver
247,21,deer,0.567326308868,left,1,correct,arm1,2,arm12,beaver
248,21,fist,0.200252293667,right,1,correct,arm1,3,arm13,beaver
249,21,stepladder,1.30113203128,right,1,correct,decision,2,decision2,beaver
250,21,calc,0.96667175804,right,1,correct,arm2,1,arm21,beaver
251,21,tongue,0.583610691363,right,1,correct,arm2,2,arm22,beaver
252,21,beaver,0.617142688105,left,1,correct,arm2,3,arm23,beaver
253,22,arc,2.96695037381,space,-1,miss,target,NaN,targetNaN,arc
254,22,trophy,0.767006579903,right,-1,miss,path,1,path1,arc
255,22,astronaut,0.10022802421,right,-1,miss,path,2,path2,arc
256,22,robot,0.150298870489,right,-1,miss,path,3,path3,arc
257,22,watch,1.78353124208,right,-1,miss,decision,1,decision1,arc
258,22,clover,9.85011799666,left,-1,miss,arm1,1,arm11,arc
259,22,radio,0.533589048078,right,-1,miss,arm1,2,arm12,arc
260,22,wing,0.883658747305,left,-1,miss,arm1,3,arm13,arc
261,22,stepladder,5.06722578988,left,-1,miss,decision,2,decision2,arc
262,22,calc,10.800109937,right,-1,miss,arm2,1,arm21,arc
263,22,tongue,0.283574106055,right,-1,miss,arm2,2,arm22,arc
264,22,beaver,0.250250391953,left,-1,miss,arm2,3,arm23,arc
265,23,beaver,0.568325461849,space,1,correct,target,NaN,targetNaN,beaver
266,23,trophy,0.900247101701,right,1,correct,path,1,path1,beaver
267,23,astronaut,0.133575585147,right,1,correct,path,2,path2,beaver
268,23,robot,0.150384296576,right,1,correct,path,3,path3,beaver
269,23,pigeon,1.20032836212,left,1,correct,decision,1,decision1,beaver
270,23,bus,0.75025552357,right,1,correct,arm1,1,arm11,beaver
271,23,deer,0.283710848162,left,1,correct,arm1,2,arm12,beaver
272,23,fist,0.166896582523,right,1,correct,arm1,3,arm13,beaver
273,23,stepladder,0.617286674795,left,1,correct,decision,2,decision2,beaver
274,23,calc,0.650272910629,right,1,correct,arm2,1,arm21,beaver
275,23,tongue,0.300233095448,right,1,correct,arm2,2,arm22,beaver
276,23,beaver,0.183854412229,left,1,correct,arm2,3,arm23,beaver
277,24,arc,0.366963534849,space,1,correct,target,NaN,targetNaN,arc
278,24,trophy,0.700511288625,right,1,correct,path,1,path1,arc
279,24,astronaut,0.0669296662672,right,1,correct,path,2,path2,arc
280,24,robot,0.0835708459781,right,1,correct,path,3,path3,arc
281,24,watch,2.21668036102,left,1,correct,decision,1,decision1,arc
282,24,clover,1.56689223577,left,1,correct,arm1,1,arm11,arc
283,24,radio,0.566960455879,right,1,correct,arm1,2,arm12,arc
284,24,wing,0.633578301902,left,1,correct,arm1,3,arm13,arc
285,24,holly,1.86699070214,left,1,correct,decision,2,decision2,arc
286,24,match,7.2335316345,right,1,correct,arm2,1,arm21,arc
287,24,baby,0.316908988956,right,1,correct,arm2,2,arm22,arc
288,24,arc,0.200391148799,left,1,correct,arm2,3,arm23,arc
289,25,arc,5.4169030725,space,-1,miss,target,NaN,targetNaN,arc
290,25,trophy,0.633606978488,right,-1,miss,path,1,path1,arc
291,25,astronaut,0.0502202664211,right,-1,miss,path,2,path2,arc
292,25,robot,0.0338803419436,right,-1,miss,path,3,path3,arc
293,25,watch,1.76714271828,right,-1,miss,decision,1,decision1,arc
294,25,clover,2.03378253963,left,-1,miss,arm1,1,arm11,arc
295,25,radio,0.466952486808,right,-1,miss,arm1,2,arm12,arc
296,25,wing,0.317360268004,left,-1,miss,arm1,3,arm13,arc
297,25,stepladder,1.50026865443,left,-1,miss,decision,2,decision2,arc
298,25,calc,1.38356668034,right,-1,miss,arm2,1,arm21,arc
299,25,tongue,0.150240309886,right,-1,miss,arm2,2,arm22,arc
300,25,beaver,0.150279551541,left,-1,miss,arm2,3,arm23,arc
301,26,beaver,0.467869534157,space,1,correct,target,NaN,targetNaN,beaver
302,26,trophy,0.634641750803,right,1,correct,path,1,path1,beaver
303,26,astronaut,0.0502130218374,right,1,correct,path,2,path2,beaver
304,26,robot,0.0171784885752,right,1,correct,path,3,path3,beaver
305,26,pigeon,0.716798689711,left,1,correct,decision,1,decision1,beaver
306,26,bus,3.46677499375,right,1,correct,arm1,1,arm11,beaver
307,26,deer,0.716948411718,left,1,correct,arm1,2,arm12,beaver
308,26,fist,0.300241547491,right,1,correct,arm1,3,arm13,beaver
309,26,stepladder,2.0344475348,left,1,correct,decision,2,decision2,beaver
310,26,calc,0.867035377247,right,1,correct,arm2,1,arm21,beaver
311,26,tongue,0.700251388102,right,1,correct,arm2,2,arm22,beaver
312,26,beaver,0.18358183364,left,1,correct,arm2,3,arm23,beaver
313,27,arc,0.650278947811,space,1,correct,target,NaN,targetNaN,arc
314,27,trophy,4.33353326455,right,1,correct,path,1,path1,arc
315,27,astronaut,0.0668946506339,right,1,correct,path,2,path2,arc
316,27,robot,0.0502459244453,right,1,correct,path,3,path3,arc
317,27,watch,2.70044095549,left,1,correct,decision,1,decision1,arc
318,27,clover,7.98348046944,left,1,correct,arm1,1,arm11,arc
319,27,radio,0.51691436203,right,1,correct,arm1,2,arm12,arc
320,27,wing,0.233651472518,left,1,correct,arm1,3,arm13,arc
321,27,holly,13.8169639272,left,1,correct,decision,2,decision2,arc
322,27,match,4.28357833208,right,1,correct,arm2,1,arm21,arc
323,27,baby,0.0835533381905,right,1,correct,arm2,2,arm22,arc
324,27,arc,0.116912369762,left,1,correct,arm2,3,arm23,arc
325,28,arc,1.05025709324,space,1,correct,target,NaN,targetNaN,arc
326,28,trophy,0.433637526614,right,1,correct,path,1,path1,arc
327,28,astronaut,0.0672067727428,right,1,correct,path,2,path2,arc
328,28,robot,0.0344022559875,right,1,correct,path,3,path3,arc
329,28,watch,0.433649902814,left,1,correct,decision,1,decision1,arc
330,28,clover,2.21690132172,left,1,correct,arm1,1,arm11,arc
331,28,radio,0.233565744566,right,1,correct,arm1,2,arm12,arc
332,28,wing,0.283597952919,left,1,correct,arm1,3,arm13,arc
333,28,holly,0.816908988956,left,1,correct,decision,2,decision2,arc
334,28,match,1.0003392894,right,1,correct,arm2,1,arm21,arc
335,28,baby,0.0671056500287,right,1,correct,arm2,2,arm22,arc
336,28,arc,0.166934616776,left,1,correct,arm2,3,arm23,arc
337,29,beaver,0.433690050064,space,1,correct,target,NaN,targetNaN,beaver
338,29,trophy,0.567003319826,right,1,correct,path,1,path1,beaver
339,29,astronaut,0.0674449394282,right,1,correct,path,2,path2,beaver
340,29,robot,0.0502622248314,right,1,correct,path,3,path3,beaver
341,29,pigeon,4.3502411551,right,1,correct,decision,1,decision1,beaver
342,29,bus,1.33357069507,right,1,correct,arm1,1,arm11,beaver
343,29,deer,0.500265333976,left,1,correct,arm1,2,arm12,beaver
344,29,fist,0.167002233153,right,1,correct,arm1,3,arm13,beaver
345,29,stepladder,4.0169469628,right,1,correct,decision,2,decision2,beaver
346,29,calc,1.21691973513,right,1,correct,arm2,1,arm21,beaver
347,29,tongue,0.383902347443,right,1,correct,arm2,2,arm22,beaver
348,29,beaver,0.150242724747,left,1,correct,arm2,3,arm23,beaver
349,30,arc,1.91703528669,space,1,correct,target,NaN,targetNaN,arc
350,30,trophy,3.30021075788,right,1,correct,path,1,path1,arc
351,30,astronaut,0.0502386798325,right,1,correct,path,2,path2,arc
352,30,robot,0.0335914629395,right,1,correct,path,3,path3,arc
353,30,watch,5.30019898538,right,1,correct,decision,1,decision1,arc
354,30,clover,1.90029298427,left,1,correct,arm1,1,arm11,arc
355,30,radio,0.433577456686,right,1,correct,arm1,2,arm12,arc
356,30,wing,0.200243237894,left,1,correct,arm1,3,arm13,arc
357,30,holly,2.98350220328,left,1,correct,decision,2,decision2,arc
358,30,match,4.03372911061,right,1,correct,arm2,1,arm21,arc
359,30,baby,0.266919644549,right,1,correct,arm2,2,arm22,arc
360,30,arc,0.100223496323,left,1,correct,arm2,3,arm23,arc
361,31,arc,0.850337749929,space,1,correct,target,NaN,targetNaN,arc
362,31,trophy,5.60016795431,right,1,correct,path,1,path1,arc
363,31,astronaut,0.0841896567435,right,1,correct,path,2,path2,arc
364,31,robot,0.0502480374707,right,1,correct,path,3,path3,arc
365,31,watch,2.2335787245,left,1,correct,decision,1,decision1,arc
366,31,clover,3.60020810153,left,1,correct,arm1,1,arm11,arc
367,31,radio,0.183560099802,right,1,correct,arm1,2,arm12,arc
368,31,wing,0.233600458334,left,1,correct,arm1,3,arm13,arc
369,31,holly,0.883653313853,left,1,correct,decision,2,decision2,arc
370,31,match,1.16699015879,right,1,correct,arm2,1,arm21,arc
371,31,baby,0.066907328699,right,1,correct,arm2,2,arm22,arc
372,31,arc,0.13358524465,left,1,correct,arm2,3,arm23,arc
373,32,beaver,0.667504224519,space,1,correct,target,NaN,targetNaN,beaver
374,32,trophy,1.51692311594,right,1,correct,path,1,path1,beaver
375,32,astronaut,0.0502296240884,right,1,correct,path,2,path2,beaver
376,32,robot,0.0502561876783,right,1,correct,path,3,path3,beaver
377,32,pigeon,1.75006173013,left,1,correct,decision,1,decision1,beaver
378,32,bus,10.2671022692,right,1,correct,arm1,1,arm11,beaver
379,32,deer,0.433564778621,left,1,correct,arm1,2,arm12,beaver
380,32,fist,0.133600941335,right,1,correct,arm1,3,arm13,beaver
381,32,stepladder,1.46693950688,right,1,correct,decision,2,decision2,beaver
382,32,calc,0.88357754724,right,1,correct,arm2,1,arm21,beaver
383,32,tongue,0.233598647173,right,1,correct,arm2,2,arm22,beaver
384,32,beaver,0.233575102204,left,1,correct,arm2,3,arm23,beaver
385,33,arc,0.73387696108,space,-1,miss,target,NaN,targetNaN,arc
386,33,trophy,34.116554667,right,-1,miss,path,1,path1,arc
387,33,astronaut,0.150306718831,right,-1,miss,path,2,path2,arc
388,33,robot,0.166903827165,right,-1,miss,path,3,path3,arc
389,33,pigeon,1.91692631564,right,-1,miss,decision,1,decision1,arc
390,33,bus,9.68346350495,right,-1,miss,arm1,1,arm11,arc
391,33,deer,0.183573683462,left,-1,miss,arm1,2,arm12,arc
392,33,fist,0.200092006591,right,-1,miss,arm1,3,arm13,arc
393,33,stepladder,1.41720945929,right,-1,miss,decision,2,decision2,arc
394,33,calc,1.86783500153,right,-1,miss,arm2,1,arm21,arc
395,33,tongue,0.0669175919029,right,-1,miss,arm2,2,arm22,arc
396,33,beaver,0.1336501443,left,-1,miss,arm2,3,arm23,arc
397,34,beaver,1.91697793352,space,1,correct,target,NaN,targetNaN,beaver
398,34,trophy,0.416915448703,right,1,correct,path,1,path1,beaver
399,34,astronaut,0.0502845623996,right,1,correct,path,2,path2,beaver
400,34,robot,0.0669987919682,right,1,correct,path,3,path3,beaver
401,34,pigeon,1.26695284905,right,1,correct,decision,1,decision1,beaver
402,34,bus,4.73352348432,right,1,correct,arm1,1,arm11,beaver
403,34,deer,0.216904340312,left,1,correct,arm1,2,arm12,beaver
404,34,fist,0.133408355352,right,1,correct,arm1,3,arm13,beaver
405,34,stepladder,4.51688055383,left,1,correct,decision,2,decision2,beaver
406,34,calc,1.46694524217,right,1,correct,arm2,1,arm21,beaver
407,34,tongue,0.100076189177,right,1,correct,arm2,2,arm22,beaver
408,34,beaver,0.150383390981,left,1,correct,arm2,3,arm23,beaver
409,35,beaver,0.467078663816,space,1,correct,target,NaN,targetNaN,beaver
410,35,trophy,0.48358370518,right,1,correct,path,1,path1,beaver
411,35,astronaut,0.0669172900671,right,1,correct,path,2,path2,beaver
412,35,robot,0.0336735685705,right,1,correct,path,3,path3,beaver
413,35,pigeon,1.86692459503,right,1,correct,decision,1,decision1,beaver
414,35,bus,4.88354102234,right,1,correct,arm1,1,arm11,beaver
415,35,deer,0.116926858987,left,1,correct,arm1,2,arm12,beaver
416,35,fist,0.216896190104,right,1,correct,arm1,3,arm13,beaver
417,35,stepladder,1.13361060081,right,1,correct,decision,2,decision2,beaver
418,35,calc,1.33364344304,right,1,correct,arm2,1,arm21,beaver
419,35,tongue,0.100235268823,right,1,correct,arm2,2,arm22,beaver
420,35,beaver,0.133733457391,left,1,correct,arm2,3,arm23,beaver
421,36,beaver,0.966967277898,space,1,correct,target,NaN,targetNaN,beaver
422,36,trophy,3.23375531196,right,1,correct,path,1,path1,beaver
423,36,astronaut,0.0335697291011,right,1,correct,path,2,path2,beaver
424,36,robot,0.0335558435763,right,1,correct,path,3,path3,beaver
425,36,pigeon,1.4003177367,right,1,correct,decision,1,decision1,beaver
426,36,bus,0.617052432295,right,1,correct,arm1,1,arm11,beaver
427,36,deer,0.0836164266802,left,1,correct,arm1,2,arm12,beaver
428,36,fist,0.133628410462,right,1,correct,arm1,3,arm13,beaver
429,36,stepladder,0.933577456686,right,1,correct,decision,2,decision2,beaver
430,36,calc,1.10035359752,right,1,correct,arm2,1,arm21,beaver
431,36,tongue,0.0335950852605,right,1,correct,arm2,2,arm22,beaver
432,36,beaver,0.117031302187,left,1,correct,arm2,3,arm23,beaver
433,37,arc,1.61712729328,space,1,correct,target,NaN,targetNaN,arc
434,37,trophy,0.666920429387,right,1,correct,path,1,path1,arc
435,37,astronaut,0.0503865906794,right,1,correct,path,2,path2,arc
436,37,robot,0.0335987075523,right,1,correct,path,3,path3,arc
437,37,watch,2.53363432692,right,1,correct,decision,1,decision1,arc
438,37,clover,1.88401946871,left,1,correct,arm1,1,arm11,arc
439,37,radio,0.300248188403,right,1,correct,arm1,2,arm12,arc
440,37,wing,0.250238921319,left,1,correct,arm1,3,arm13,arc
441,37,holly,2.31689963132,left,1,correct,decision,2,decision2,arc
442,37,match,0.766922059411,right,1,correct,arm2,1,arm21,arc
443,37,baby,0.0835880519589,right,1,correct,arm2,2,arm22,arc
444,37,arc,0.133614524966,left,1,correct,arm2,3,arm23,arc
445,38,arc,0.766965527117,space,1,correct,target,NaN,targetNaN,arc
446,38,trophy,0.616916897619,right,1,correct,path,1,path1,arc
447,38,astronaut,0.0504134561343,right,1,correct,path,2,path2,arc
448,38,robot,0.0335790867393,right,1,correct,path,3,path3,arc
449,38,watch,0.333743660216,left,1,correct,decision,1,decision1,arc
450,38,clover,1.18360296378,left,1,correct,arm1,1,arm11,arc
451,38,radio,0.10038559456,right,1,correct,arm1,2,arm12,arc
452,38,wing,0.0335661067802,left,1,correct,arm1,3,arm13,arc
453,38,holly,1.41691876916,right,1,correct,decision,2,decision2,arc
454,38,match,0.683707105083,right,1,correct,arm2,1,arm21,arc
455,38,baby,0.0169357940031,right,1,correct,arm2,2,arm22,arc
456,38,arc,0.100245532027,left,1,correct,arm2,3,arm23,arc
457,39,arc,0.733423267171,space,1,correct,target,NaN,targetNaN,arc
458,39,trophy,0.450253953895,right,1,correct,path,1,path1,arc
459,39,astronaut,0.0344867764506,right,1,correct,path,2,path2,arc
460,39,robot,0.0169421330502,right,1,correct,path,3,path3,arc
461,39,watch,3.01670909798,right,1,correct,decision,1,decision1,arc
462,39,clover,0.81691744097,left,1,correct,arm1,1,arm11,arc
463,39,radio,0.0335824071954,right,1,correct,arm1,2,arm12,arc
464,39,wing,0.000232129503274,left,1,correct,arm1,3,arm13,arc
465,39,holly,2.98356016018,left,1,correct,decision,2,decision2,arc
466,39,match,3.73355336837,right,1,correct,arm2,1,arm21,arc
467,39,baby,0.0335778792796,right,1,correct,arm2,2,arm22,arc
468,39,arc,0.0669118565856,left,1,correct,arm2,3,arm23,arc
469,40,arc,0.383623127942,space,-1,miss,target,NaN,targetNaN,arc
470,40,trophy,9.38345952041,right,-1,miss,path,1,path1,arc
471,40,astronaut,0.0669037064072,right,-1,miss,path,2,path2,arc
472,40,robot,0.0169213047775,right,-1,miss,path,3,path3,arc
473,40,pigeon,1.08363665122,left,-1,miss,decision,1,decision1,arc
474,40,bus,1.96689996336,right,-1,miss,arm1,1,arm11,arc
475,40,deer,0.183545308741,left,-1,miss,arm1,2,arm12,arc
476,40,fist,0.216898604995,right,-1,miss,arm1,3,arm13,arc
477,40,stepladder,2.18359843589,left,-1,miss,decision,2,decision2,arc
478,40,calc,0.600262738008,right,-1,miss,arm2,1,arm21,arc
479,40,tongue,0.0335688235064,right,-1,miss,arm2,2,arm22,arc
480,40,beaver,0.166890847206,left,-1,miss,arm2,3,arm23,arc
481,41,arc,1.11726192237,space,1,correct,target,NaN,targetNaN,arc
482,41,trophy,0.516988619318,right,1,correct,path,1,path1,arc
483,41,astronaut,0.0335878406477,right,1,correct,path,2,path2,arc
484,41,robot,0.0170320869947,right,1,correct,path,3,path3,arc
485,41,watch,1.43367676827,left,1,correct,decision,1,decision1,arc
486,41,clover,1.80022494527,left,1,correct,arm1,1,arm11,arc
487,41,radio,0.28341623384,right,1,correct,arm1,2,arm12,arc
488,41,wing,0.15026415672,left,1,correct,arm1,3,arm13,arc
489,41,holly,1.01693277541,left,1,correct,decision,2,decision2,arc
490,41,match,0.483860207925,right,1,correct,arm2,1,arm21,arc
491,41,baby,0.0334414390964,right,1,correct,arm2,2,arm22,arc
492,41,arc,0.100633118855,left,1,correct,arm2,3,arm23,arc
493,42,arc,0.851209820306,space,1,correct,target,NaN,targetNaN,arc
494,42,trophy,1.16691197734,right,1,correct,path,1,path1,arc
495,42,astronaut,0.0335579566017,right,1,correct,path,2,path2,arc
496,42,robot,0.000443732598796,right,1,correct,path,3,path3,arc
497,42,watch,1.00031182024,right,1,correct,decision,1,decision1,arc
498,42,clover,0.916937786271,left,1,correct,arm1,1,arm11,arc
499,42,radio,0.0669323829934,right,1,correct,arm1,2,arm12,arc
500,42,wing,0.0169267382298,left,1,correct,arm1,3,arm13,arc
501,42,holly,1.10030288523,left,1,correct,decision,2,decision2,arc
502,42,match,0.533666323958,right,1,correct,arm2,1,arm21,arc
503,42,baby,0.816747796256,right,1,correct,arm2,2,arm22,arc
504,42,arc,0.100458644418,left,1,correct,arm2,3,arm23,arc
505,43,arc,1.36706073341,space,1,correct,target,NaN,targetNaN,arc
506,43,trophy,0.933593757072,right,1,correct,path,1,path1,arc
507,43,astronaut,0.0501692522957,right,1,correct,path,2,path2,arc
508,43,robot,0.0335884443775,right,1,correct,path,3,path3,arc
509,43,watch,2.48386533954,left,1,correct,decision,1,decision1,arc
510,43,clover,0.833410407999,left,1,correct,arm1,1,arm11,arc
511,43,radio,0.0667687754612,right,1,correct,arm1,2,arm12,arc
512,43,wing,0.000630885100691,left,1,correct,arm1,3,arm13,arc
513,43,holly,0.8337509048,left,1,correct,decision,2,decision2,arc
514,43,match,0.950217127101,right,1,correct,arm2,1,arm21,arc
515,43,baby,0.0338199701509,right,1,correct,arm2,2,arm22,arc
516,43,arc,0.0669018952467,left,1,correct,arm2,3,arm23,arc
517,44,beaver,0.250289935473,space,1,correct,target,NaN,targetNaN,beaver
518,44,trophy,3.08363121777,right,1,correct,path,1,path1,beaver
519,44,astronaut,0.000329026195686,right,1,correct,path,2,path2,beaver
520,44,robot,0.0338429114199,right,1,correct,path,3,path3,beaver
521,44,pigeon,0.450356585934,right,1,correct,decision,1,decision1,beaver
522,44,bus,0.767012013384,right,1,correct,arm1,1,arm11,beaver
523,44,deer,0.216928489041,left,1,correct,arm1,2,arm12,beaver
524,44,fist,0.233627323789,right,1,correct,arm1,3,arm13,beaver
525,44,stepladder,0.816925591178,left,1,correct,decision,2,decision2,beaver
526,44,calc,0.717261137528,right,1,correct,arm2,1,arm21,beaver
527,44,tongue,0.0502960330341,right,1,correct,arm2,2,arm22,beaver
528,44,beaver,0.133838806127,left,1,correct,arm2,3,arm23,beaver
529,45,beaver,0.500641752064,space,1,correct,target,NaN,targetNaN,beaver
530,45,trophy,1.80031429548,right,1,correct,path,1,path1,beaver
531,45,astronaut,0.0501740820473,right,1,correct,path,2,path2,beaver
532,45,robot,0.0169925434748,right,1,correct,path,3,path3,beaver
533,45,pigeon,5.83364646166,right,1,correct,decision,1,decision1,beaver
534,45,bus,2.91691907102,right,1,correct,arm1,1,arm11,beaver
535,45,deer,0.100236476283,left,1,correct,arm1,2,arm12,beaver
536,45,fist,0.0836623092182,right,1,correct,arm1,3,arm13,beaver
537,45,stepladder,2.33360148466,right,1,correct,decision,2,decision2,beaver
538,45,calc,0.684288787219,right,1,correct,arm2,1,arm21,beaver
539,45,tongue,0.0170351055858,right,1,correct,arm2,2,arm22,beaver
540,45,beaver,0.0670905570732,left,1,correct,arm2,3,arm23,beaver
541,46,beaver,0.517016390339,space,1,correct,target,NaN,targetNaN,beaver
542,46,trophy,1.06706701207,right,1,correct,path,1,path1,beaver
543,46,astronaut,0.0503020702163,right,1,correct,path,2,path2,beaver
544,46,robot,0.0169931472046,right,1,correct,path,3,path3,beaver
545,46,pigeon,1.46695248681,left,1,correct,decision,1,decision1,beaver
546,46,bus,0.600261228683,right,1,correct,arm1,1,arm11,beaver
547,46,deer,0.100254285935,left,1,correct,arm1,2,arm12,beaver
548,46,fist,0.0669024989766,right,1,correct,arm1,3,arm13,beaver
549,46,stepladder,0.900273967156,right,1,correct,decision,2,decision2,beaver
550,46,calc,0.467267023778,right,1,correct,arm2,1,arm21,beaver
551,46,tongue,0.033596594556,right,1,correct,arm2,2,arm22,beaver
552,46,beaver,0.0504560182453,left,1,correct,arm2,3,arm23,beaver
553,47,arc,0.583649631153,space,1,correct,target,NaN,targetNaN,arc
554,47,trophy,0.700254104828,right,1,correct,path,1,path1,arc
555,47,astronaut,0.0344541757077,right,1,correct,path,2,path2,arc
556,47,robot,0.033586935082,right,1,correct,path,3,path3,arc
557,47,watch,0.483824890427,left,1,correct,decision,1,decision1,arc
558,47,clover,2.01695028323,left,1,correct,arm1,1,arm11,arc
559,47,radio,0.116944064939,right,1,correct,arm1,2,arm12,arc
560,47,wing,0.0669532112661,left,1,correct,arm1,3,arm13,arc
561,47,holly,1.95033998368,right,1,correct,decision,2,decision2,arc
562,47,match,0.483639549057,right,1,correct,arm2,1,arm21,arc
563,47,baby,0.0335751625826,right,1,correct,arm2,2,arm22,arc
564,47,arc,0.117048508109,left,1,correct,arm2,3,arm23,arc
565,48,arc,0.317635563319,space,-1,miss,target,NaN,targetNaN,arc
566,48,trophy,1.0336270823,right,-1,miss,path,1,path1,arc
567,48,astronaut,0.0335621826234,right,-1,miss,path,2,path2,arc
568,48,robot,0.034137827548,right,-1,miss,path,3,path3,arc
569,48,pigeon,5.58392703949,right,-1,miss,decision,1,decision1,arc
570,48,bus,1.46689966149,right,-1,miss,arm1,1,arm11,arc
571,48,deer,0.0501991363126,left,-1,miss,arm1,2,arm12,arc
572,48,fist,0.133569246129,right,-1,miss,arm1,3,arm13,arc
573,48,stepladder,5.51681837087,right,-1,miss,decision,2,decision2,arc
574,48,calc,0.633580716763,right,-1,miss,arm2,1,arm21,arc
575,48,tongue,0.0169025895302,right,-1,miss,arm2,2,arm22,arc
576,48,beaver,0.11709167395,left,-1,miss,arm2,3,arm23,arc
577,49,beaver,0.76710498592,space,1,correct,target,NaN,targetNaN,beaver
578,49,trophy,1.46688396484,right,1,correct,path,1,path1,beaver
579,49,astronaut,0.0169551129802,right,1,correct,path,2,path2,beaver
580,49,robot,0.0336780964572,right,1,correct,path,3,path3,beaver
581,49,pigeon,0.967102812545,left,1,correct,decision,1,decision1,beaver
582,49,bus,0.833581863815,right,1,correct,arm1,1,arm11,beaver
583,49,deer,0.250297783816,left,1,correct,arm1,2,arm12,beaver
584,49,fist,0.0502263036033,right,1,correct,arm1,3,arm13,beaver
585,49,stepladder,0.916935975139,left,1,correct,decision,2,decision2,beaver
586,49,calc,0.633707799367,right,1,correct,arm2,1,arm21,beaver
587,49,tongue,0.200322928664,right,1,correct,arm2,2,arm22,beaver
588,49,beaver,0.100282056956,left,1,correct,arm2,3,arm23,beaver
589,50,arc,0.967023121775,space,1,correct,target,NaN,targetNaN,arc
590,50,trophy,0.533576671878,right,1,correct,path,1,path1,arc
591,50,astronaut,0.050401381799,right,1,correct,path,2,path2,arc
592,50,robot,0.0502918069833,right,1,correct,path,3,path3,arc
593,50,watch,0.733651472518,right,1,correct,decision,1,decision1,arc
594,50,clover,0.766922361276,left,1,correct,arm1,1,arm11,arc
595,50,radio,0.0169315679814,right,1,correct,arm1,2,arm12,arc
596,50,wing,0.0336397603678,left,1,correct,arm1,3,arm13,arc
597,50,holly,1.25025763657,right,1,correct,decision,2,decision2,arc
598,50,match,2.75022533769,right,1,correct,arm2,1,arm21,arc
599,50,baby,0.0502048716589,right,1,correct,arm2,2,arm22,arc
600,50,arc,0.100259417552,left,1,correct,arm2,3,arm23,arc
