pic_index,trial_num,pic_name,rt,resp,feedback_code,feedback,segment,segment_index,pic_type,trial_target
1,1,bolt,6.86682971048,space,1,correct,target,NaN,targetNaN,bolt
2,1,coffeepot,6.03367321589,left,1,correct,path,1,path1,bolt
3,1,mosquito,1.16686071134,left,1,correct,path,2,path2,bolt
4,1,canoe,1.16707050297,right,1,correct,path,3,path3,bolt
5,1,domino,9.71692438838,left,1,correct,decision,1,decision1,bolt
6,1,ambulance,1.96706482803,right,1,correct,arm1,1,arm11,bolt
7,1,trunk,2.11694630331,left,1,correct,arm1,2,arm12,bolt
8,1,peach,3.16691081984,left,1,correct,arm1,3,arm13,bolt
9,1,garlic,4.91679301958,left,1,correct,decision,2,decision2,bolt
10,1,mug,8.26683653248,right,1,correct,arm2,1,arm21,bolt
11,1,branch,4.40025706266,left,1,correct,arm2,2,arm22,bolt
12,1,bolt,1.46688024158,right,1,correct,arm2,3,arm23,bolt
13,2,bolt,4.51689788521,space,1,correct,target,NaN,targetNaN,bolt
14,2,coffeepot,4.26688784842,left,1,correct,path,1,path1,bolt
15,2,mosquito,1.01688535808,left,1,correct,path,2,path2,bolt
16,2,canoe,0.916915574115,right,1,correct,path,3,path3,bolt
17,2,domino,5.76686777483,left,1,correct,decision,1,decision1,bolt
18,2,ambulance,1.7670597568,right,1,correct,arm1,1,arm11,bolt
19,2,trunk,2.16688093586,left,1,correct,arm1,2,arm12,bolt
20,2,peach,1.58369553832,left,1,correct,arm1,3,arm13,bolt
21,2,garlic,4.53362869177,left,1,correct,decision,2,decision2,bolt
22,2,mug,2.56690073777,right,1,correct,arm2,1,arm21,bolt
23,2,branch,1.20028308286,left,1,correct,arm2,2,arm22,bolt
24,2,bolt,10.9501393228,right,1,correct,arm2,3,arm23,bolt
25,3,lion,3.50030231124,space,1,correct,target,NaN,targetNaN,lion
26,3,coffeepot,2.00036102271,left,1,correct,path,1,path1,lion
27,3,mosquito,1.00046818246,left,1,correct,path,2,path2,lion
28,3,canoe,1.11704742589,right,1,correct,path,3,path3,lion
29,3,goose,3.60050573365,right,1,correct,decision,1,decision1,lion
30,3,sailor,4.76702383565,right,1,correct,arm1,1,arm11,lion
31,3,cooker,1.74999962268,right,1,correct,arm1,2,arm12,lion
32,3,tooth,14.9168081125,right,1,correct,arm1,3,arm13,lion
33,3,crutches,2.90035018599,left,1,correct,decision,2,decision2,lion
34,3,stapler,1.21694083967,right,1,correct,arm2,1,arm21,lion
35,3,rose,1.13365115004,right,1,correct,arm2,2,arm22,lion
36,3,lion,1.86693958696,left,1,correct,arm2,3,arm23,lion
37,4,lion,2.80049480637,space,1,correct,target,NaN,targetNaN,lion
38,4,coffeepot,3.40027728717,left,1,correct,path,1,path1,lion
39,4,mosquito,1.01703175943,left,1,correct,path,2,path2,lion
40,4,canoe,1.01713348573,right,1,correct,path,3,path3,lion
41,4,goose,2.31686987275,left,1,correct,decision,1,decision1,lion
42,4,sailor,2.38364458461,right,1,correct,arm1,1,arm11,lion
43,4,cooker,5.48379306879,right,1,correct,arm1,2,arm12,lion
44,4,tooth,0.950094044001,right,1,correct,arm1,3,arm13,lion
45,4,crutches,1.20034496384,right,1,correct,decision,2,decision2,lion
46,4,stapler,2.03361133491,right,1,correct,arm2,1,arm21,lion
47,4,rose,1.1342086826,right,1,correct,arm2,2,arm22,lion
48,4,lion,0.983622971549,left,1,correct,arm2,3,arm23,lion
49,5,lion,2.31698005108,space,1,correct,target,NaN,targetNaN,lion
50,5,coffeepot,4.3502542101,left,1,correct,path,1,path1,lion
51,5,mosquito,0.683740786903,left,1,correct,path,2,path2,lion
52,5,canoe,3.10020795029,right,1,correct,path,3,path3,lion
53,5,goose,6.48339521935,right,1,correct,decision,1,decision1,lion
54,5,sailor,1.96701321023,right,1,correct,arm1,1,arm11,lion
55,5,cooker,1.80062943524,right,1,correct,arm1,2,arm12,lion
56,5,tooth,0.917019715281,right,1,correct,arm1,3,arm13,lion
57,5,crutches,1.06710494501,left,1,correct,decision,2,decision2,lion
58,5,stapler,3.65019887944,right,1,correct,arm2,1,arm21,lion
59,5,rose,1.13361794561,right,1,correct,arm2,2,arm22,lion
60,5,lion,1.36696207541,left,1,correct,arm2,3,arm23,lion
61,6,bolt,11.6669064429,space,-1,miss,target,NaN,targetNaN,bolt
62,6,coffeepot,5.3002429055,left,-1,miss,path,1,path1,bolt
63,6,mosquito,0.950332512178,left,-1,miss,path,2,path2,bolt
64,6,canoe,2.00027167261,right,-1,miss,path,3,path3,bolt
65,6,domino,3.00000996133,right,-1,miss,decision,1,decision1,bolt
66,6,ambulance,1.58355819273,right,-1,miss,arm1,1,arm11,bolt
67,6,trunk,0.933656945718,left,-1,miss,arm1,2,arm12,bolt
68,6,peach,2.61687008405,left,-1,miss,arm1,3,arm13,bolt
69,6,crutches,2.11684427515,left,-1,miss,decision,2,decision2,bolt
70,6,stapler,1.31695167639,right,-1,miss,arm2,1,arm21,bolt
71,6,rose,1.21691699285,right,-1,miss,arm2,2,arm22,bolt
72,6,lion,1.2002740271,left,-1,miss,arm2,3,arm23,bolt
73,7,lion,8.93349786631,space,-1,miss,target,NaN,targetNaN,lion
74,7,coffeepot,2.55054121711,left,-1,miss,path,1,path1,lion
75,7,mosquito,2.85031382714,left,-1,miss,path,2,path2,lion
76,7,canoe,1.78354877474,right,-1,miss,path,3,path3,lion
77,7,goose,2.10090433774,right,-1,miss,decision,1,decision1,lion
78,7,sailor,4.70023946431,right,-1,miss,arm1,1,arm11,lion
79,7,cooker,0.716966346707,right,-1,miss,arm1,2,arm12,lion
80,7,tooth,0.800277770147,right,-1,miss,arm1,3,arm13,lion
81,7,garlic,1.7835846959,right,-1,miss,decision,2,decision2,lion
82,7,mug,2.28356371673,right,-1,miss,arm2,1,arm21,lion
83,7,branch,4.31681493451,left,-1,miss,arm2,2,arm22,lion
84,7,bolt,1.35022704283,right,-1,miss,arm2,3,arm23,lion
85,8,bolt,2.06706992943,space,0,wrong,target,NaN,targetNaN,bolt
86,8,coffeepot,64.9159345341,left,0,wrong,path,1,path1,bolt
87,8,mosquito,0.683585631658,left,0,wrong,path,2,path2,bolt
88,8,canoe,0.733729150259,right,0,wrong,path,3,path3,bolt
89,8,goose,5.71684439589,left,0,wrong,decision,1,decision1,bolt
90,8,sailor,1.01700338474,right,0,wrong,arm1,1,arm11,bolt
91,8,cooker,1.00026563544,right,0,wrong,arm1,2,arm12,bolt
92,8,tooth,1.63336061128,right,0,wrong,arm1,3,arm13,bolt
93,8,garlic,4.08346205081,left,0,wrong,decision,2,decision2,bolt
94,8,mug,4.83378768061,right,0,wrong,arm2,1,arm21,bolt
95,8,branch,1.00024088304,left,0,wrong,arm2,2,arm22,bolt
96,8,bolt,1.06692564109,right,0,wrong,arm2,3,arm23,bolt
97,9,bolt,3.10028311304,space,-1,miss,target,NaN,targetNaN,bolt
98,9,coffeepot,4.28382029642,left,-1,miss,path,1,path1,bolt
99,9,mosquito,0.70024912378,left,-1,miss,path,2,path2,bolt
100,9,canoe,0.566939677513,right,-1,miss,path,3,path3,bolt
101,9,goose,13.0167462013,right,-1,miss,decision,1,decision1,bolt
102,9,sailor,5.56693152733,right,-1,miss,arm1,1,arm11,bolt
103,9,cooker,0.600500602057,right,-1,miss,arm1,2,arm12,bolt
104,9,tooth,0.283583639393,right,-1,miss,arm1,3,arm13,bolt
105,9,crutches,3.43356985955,right,-1,miss,decision,2,decision2,bolt
106,9,stapler,9.68346730315,right,-1,miss,arm2,1,arm21,bolt
107,9,rose,0.667238789053,right,-1,miss,arm2,2,arm22,bolt
108,9,lion,1.10023209896,left,-1,miss,arm2,3,arm23,bolt
109,10,bolt,1.50032012089,space,1,correct,target,NaN,targetNaN,bolt
110,10,coffeepot,6.13383950971,left,1,correct,path,1,path1,bolt
111,10,mosquito,0.600243720514,left,1,correct,path,2,path2,bolt
112,10,canoe,0.533648916283,right,1,correct,path,3,path3,bolt
113,10,domino,8.60020206405,right,1,correct,decision,1,decision1,bolt
114,10,ambulance,2.28356945205,right,1,correct,arm1,1,arm11,bolt
115,10,trunk,0.683604648741,left,1,correct,arm1,2,arm12,bolt
116,10,peach,1.61689785502,left,1,correct,arm1,3,arm13,bolt
117,10,garlic,9.18349069718,left,1,correct,decision,2,decision2,bolt
118,10,mug,1.88356232819,right,1,correct,arm2,1,arm21,bolt
119,10,branch,0.950586073277,left,1,correct,arm2,2,arm22,bolt
120,10,bolt,3.56691100096,right,1,correct,arm2,3,arm23,bolt
121,11,lion,3.11693121038,space,-1,miss,target,NaN,targetNaN,lion
122,11,coffeepot,2.20024414312,left,-1,miss,path,1,path1,lion
123,11,mosquito,0.450242105571,left,-1,miss,path,2,path2,lion
124,11,canoe,0.383611380184,right,-1,miss,path,3,path3,lion
125,11,goose,3.21747784585,left,-1,miss,decision,1,decision1,lion
126,11,sailor,3.75018345447,right,-1,miss,arm1,1,arm11,lion
127,11,cooker,0.33358347337,right,-1,miss,arm1,2,arm12,lion
128,11,tooth,0.23356327904,right,-1,miss,arm1,3,arm13,lion
129,11,garlic,0.900288606866,left,-1,miss,decision,2,decision2,lion
130,11,mug,2.36696630143,right,-1,miss,arm2,1,arm21,lion
131,11,branch,0.433623892217,left,-1,miss,arm2,2,arm22,lion
132,11,bolt,4.45018294131,right,-1,miss,arm2,3,arm23,lion
133,12,bolt,2.28400865609,space,1,correct,target,NaN,targetNaN,bolt
134,12,coffeepot,7.55021883228,left,1,correct,path,1,path1,bolt
135,12,mosquito,0.883597041908,left,1,correct,path,2,path2,bolt
136,12,canoe,0.467234019689,right,1,correct,path,3,path3,bolt
137,12,domino,6.1003030357,right,1,correct,decision,1,decision1,bolt
138,12,ambulance,2.63351274794,right,1,correct,arm1,1,arm11,bolt
139,12,trunk,0.783431049945,left,1,correct,arm1,2,arm12,bolt
140,12,peach,0.200269801084,left,1,correct,arm1,3,arm13,bolt
141,12,garlic,0.80040605999,left,1,correct,decision,2,decision2,bolt
142,12,mug,6.68350594103,right,1,correct,arm2,1,arm21,bolt
143,12,branch,0.583556381574,left,1,correct,arm2,2,arm22,bolt
144,12,bolt,1.50051663074,right,1,correct,arm2,3,arm23,bolt
145,13,bolt,1.26691592125,space,1,correct,target,NaN,targetNaN,bolt
146,13,coffeepot,2.51688158485,left,1,correct,path,1,path1,bolt
147,13,mosquito,0.450241803713,left,1,correct,path,2,path2,bolt
148,13,canoe,0.333615772225,right,1,correct,path,3,path3,bolt
149,13,domino,1.36696237727,left,1,correct,decision,1,decision1,bolt
150,13,ambulance,3.41687799274,right,1,correct,arm1,1,arm11,bolt
151,13,trunk,0.550367044785,left,1,correct,arm1,2,arm12,bolt
152,13,peach,0.416953759209,left,1,correct,arm1,3,arm13,bolt
153,13,garlic,1.35028530152,right,1,correct,decision,2,decision2,bolt
154,13,mug,1.41703948701,right,1,correct,arm2,1,arm21,bolt
155,13,branch,0.383569120001,left,1,correct,arm2,2,arm22,bolt
156,13,bolt,0.800233698813,right,1,correct,arm2,3,arm23,bolt
157,14,lion,1.30058642041,space,0,wrong,target,NaN,targetNaN,lion
158,14,coffeepot,7.3001179361,left,0,wrong,path,1,path1,lion
159,14,mosquito,0.200245652408,left,0,wrong,path,2,path2,lion
160,14,canoe,0.500251297161,right,0,wrong,path,3,path3,lion
161,14,domino,2.88385452717,left,0,wrong,decision,1,decision1,lion
162,14,ambulance,3.3502113462,right,0,wrong,arm1,1,arm11,lion
163,14,trunk,0.616904797768,left,0,wrong,arm1,2,arm12,lion
164,14,peach,0.300256187268,left,0,wrong,arm1,3,arm13,lion
165,14,crutches,3.36666806528,left,0,wrong,decision,2,decision2,lion
166,14,stapler,2.38356338469,right,0,wrong,arm2,1,arm21,lion
167,14,rose,2.88368609015,right,0,wrong,arm2,2,arm22,lion
168,14,lion,5.51682996706,left,0,wrong,arm2,3,arm23,lion
169,15,lion,29.6998473502,space,-1,miss,target,NaN,targetNaN,lion
170,15,coffeepot,4.9335277503,left,-1,miss,path,1,path1,lion
171,15,mosquito,0.366914683633,left,-1,miss,path,2,path2,lion
172,15,canoe,0.20027251781,right,-1,miss,path,3,path3,lion
173,15,domino,5.13418845808,right,-1,miss,decision,1,decision1,lion
174,15,ambulance,1.46690891814,right,-1,miss,arm1,1,arm11,lion
175,15,trunk,0.300248942665,left,-1,miss,arm1,2,arm12,lion
176,15,peach,2.88355387615,left,-1,miss,arm1,3,arm13,lion
177,15,garlic,9.86679046888,left,-1,miss,decision,2,decision2,lion
178,15,mug,4.10020281869,right,-1,miss,arm2,1,arm21,lion
179,15,branch,0.633578553078,left,-1,miss,arm2,2,arm22,lion
180,15,bolt,2.76667217055,right,-1,miss,arm2,3,arm23,lion
181,16,lion,0.90031909457,space,1,correct,target,NaN,targetNaN,lion
182,16,coffeepot,1.76691426103,left,1,correct,path,1,path1,lion
183,16,mosquito,0.616926833435,left,1,correct,path,2,path2,lion
184,16,canoe,0.433536353266,right,1,correct,path,3,path3,lion
185,16,goose,1.68438555656,left,1,correct,decision,1,decision1,lion
186,16,sailor,1.1336034564,right,1,correct,arm1,1,arm11,lion
187,16,cooker,0.516928674772,right,1,correct,arm1,2,arm12,lion
188,16,tooth,0.483592332916,right,1,correct,arm1,3,arm13,lion
189,16,crutches,9.65011949067,right,1,correct,decision,2,decision2,lion
190,16,stapler,2.23360040763,right,1,correct,arm2,1,arm21,lion
191,16,rose,0.716942801748,right,1,correct,arm2,2,arm22,lion
192,16,lion,2.15025879834,left,1,correct,arm2,3,arm23,lion
193,17,lion,1.46741090874,space,1,correct,target,NaN,targetNaN,lion
194,17,coffeepot,2.83332432789,left,1,correct,path,1,path1,lion
195,17,mosquito,0.266911393376,left,1,correct,path,2,path2,lion
196,17,canoe,0.317082984813,right,1,correct,path,3,path3,lion
197,17,goose,1.60022470343,right,1,correct,decision,1,decision1,lion
198,17,sailor,1.01694090004,right,1,correct,arm1,1,arm11,lion
199,17,cooker,0.334325441445,right,1,correct,arm1,2,arm12,lion
200,17,tooth,0.233584107273,right,1,correct,arm1,3,arm13,lion
201,17,crutches,2.43362389222,right,1,correct,decision,2,decision2,lion
202,17,stapler,1.71690356015,right,1,correct,arm2,1,arm21,lion
203,17,rose,0.500242543266,right,1,correct,arm2,2,arm22,lion
204,17,lion,0.58358837857,left,1,correct,arm2,3,arm23,lion
205,18,lion,1.10030122455,space,1,correct,target,NaN,targetNaN,lion
206,18,coffeepot,3.15033939455,left,1,correct,path,1,path1,lion
207,18,mosquito,0.383568214426,left,1,correct,path,2,path2,lion
208,18,canoe,0.483583579021,right,1,correct,path,3,path3,lion
209,18,goose,1.10025202162,left,1,correct,decision,1,decision1,lion
210,18,sailor,0.850414647862,right,1,correct,arm1,1,arm11,lion
211,18,cooker,0.183561332053,right,1,correct,arm1,2,arm12,lion
212,18,tooth,0.166918970023,right,1,correct,arm1,3,arm13,lion
213,18,crutches,1.75023144997,right,1,correct,decision,2,decision2,lion
214,18,stapler,1.38358089248,right,1,correct,arm2,1,arm21,lion
215,18,rose,0.483588106898,right,1,correct,arm2,2,arm22,lion
216,18,lion,0.800224944918,left,1,correct,arm2,3,arm23,lion
217,19,bolt,0.783672838565,space,1,correct,target,NaN,targetNaN,bolt
218,19,coffeepot,2.35022342053,left,1,correct,path,1,path1,bolt
219,19,mosquito,0.316917566381,left,1,correct,path,2,path2,bolt
220,19,canoe,0.450245124156,right,1,correct,path,3,path3,bolt
221,19,domino,8.0334878748,right,1,correct,decision,1,decision1,bolt
222,19,ambulance,2.98354539393,right,1,correct,arm1,1,arm11,bolt
223,19,trunk,0.766921203775,left,1,correct,arm1,2,arm12,bolt
224,19,peach,0.567022688587,left,1,correct,arm1,3,arm13,bolt
225,19,garlic,1.15019450249,left,1,correct,decision,2,decision2,bolt
226,19,mug,3.23379057845,right,1,correct,arm2,1,arm21,bolt
227,19,branch,0.583586265561,left,1,correct,arm2,2,arm22,bolt
228,19,bolt,2.21686114904,right,1,correct,arm2,3,arm23,bolt
229,20,lion,0.833735459101,space,0,wrong,target,NaN,targetNaN,lion
230,20,coffeepot,11.5000710877,left,0,wrong,path,1,path1,lion
231,20,mosquito,0.583760136029,left,0,wrong,path,2,path2,lion
232,20,canoe,0.48360712398,right,0,wrong,path,3,path3,lion
233,20,domino,3.41681882848,left,0,wrong,decision,1,decision1,lion
234,20,ambulance,2.86688193199,right,0,wrong,arm1,1,arm11,lion
235,20,trunk,2.61691747582,left,0,wrong,arm1,2,arm12,lion
236,20,peach,0.883635981648,left,0,wrong,arm1,3,arm13,lion
237,20,crutches,6.83353291208,left,0,wrong,decision,2,decision2,lion
238,20,stapler,3.25025152356,right,0,wrong,arm2,1,arm21,lion
239,20,rose,0.600235872194,right,0,wrong,arm2,2,arm22,lion
240,20,lion,0.700030276403,left,0,wrong,arm2,3,arm23,lion
241,21,lion,2.28359390258,space,0,wrong,target,NaN,targetNaN,lion
242,21,coffeepot,1.76693176882,left,0,wrong,path,1,path1,lion
243,21,mosquito,0.350252097086,left,0,wrong,path,2,path2,lion
244,21,canoe,0.250268729487,right,0,wrong,path,3,path3,lion
245,21,domino,0.983587955968,right,0,wrong,decision,1,decision1,lion
246,21,ambulance,3.96686680888,right,0,wrong,arm1,1,arm11,lion
247,21,trunk,0.600261228304,left,0,wrong,arm1,2,arm12,lion
248,21,peach,0.216933896923,left,0,wrong,arm1,3,arm13,lion
249,21,crutches,6.55020645609,left,0,wrong,decision,2,decision2,lion
250,21,stapler,2.73355527979,right,0,wrong,arm2,1,arm21,lion
251,21,rose,0.683602233873,right,0,wrong,arm2,2,arm22,lion
252,21,lion,0.383819964375,left,0,wrong,arm2,3,arm23,lion
253,22,bolt,2.81706532609,space,1,correct,target,NaN,targetNaN,bolt
254,22,coffeepot,1.50041701745,left,1,correct,path,1,path1,bolt
255,22,mosquito,0.43357650044,left,1,correct,path,2,path2,bolt
256,22,canoe,0.966999928459,right,1,correct,path,3,path3,bolt
257,22,domino,1.58357902096,right,1,correct,decision,1,decision1,bolt
258,22,ambulance,1.35024364505,right,1,correct,arm1,1,arm11,bolt
259,22,trunk,0.733616557057,left,1,correct,arm1,2,arm12,bolt
260,22,peach,0.283601449041,left,1,correct,arm1,3,arm13,bolt
261,22,garlic,4.73358637121,right,1,correct,decision,2,decision2,bolt
262,22,mug,2.11690464684,right,1,correct,arm2,1,arm21,bolt
263,22,branch,0.683713317783,left,1,correct,arm2,2,arm22,bolt
264,22,bolt,2.26690958223,right,1,correct,arm2,3,arm23,bolt
265,23,bolt,0.733646742902,space,1,correct,target,NaN,targetNaN,bolt
266,23,coffeepot,1.48358901247,left,1,correct,path,1,path1,bolt
267,23,mosquito,0.183679660566,left,1,correct,path,2,path2,bolt
268,23,canoe,0.166917158872,right,1,correct,path,3,path3,bolt
269,23,domino,1.43417931177,right,1,correct,decision,1,decision1,bolt
270,23,ambulance,1.76705945495,right,1,correct,arm1,1,arm11,bolt
271,23,trunk,0.366914683633,left,1,correct,arm1,2,arm12,bolt
272,23,peach,0.450251463184,left,1,correct,arm1,3,arm13,bolt
273,23,garlic,1.25030193392,left,1,correct,decision,2,decision2,bolt
274,23,mug,4.11691340073,right,1,correct,arm2,1,arm21,bolt
275,23,branch,0.60024643724,left,1,correct,arm2,2,arm22,bolt
276,23,bolt,0.716909597318,right,1,correct,arm2,3,arm23,bolt
277,24,bolt,1.06787468407,space,1,correct,target,NaN,targetNaN,bolt
278,24,coffeepot,4.46687993972,left,1,correct,path,1,path1,bolt
279,24,mosquito,0.31692360355,left,1,correct,path,2,path2,bolt
280,24,canoe,0.250237638066,right,1,correct,path,3,path3,bolt
281,24,domino,1.46688144902,right,1,correct,decision,1,decision1,bolt
282,24,ambulance,0.867222730183,right,1,correct,arm1,1,arm11,bolt
283,24,trunk,0.283516626816,left,1,correct,arm1,2,arm12,bolt
284,24,peach,0.216920615151,left,1,correct,arm1,3,arm13,bolt
285,24,garlic,1.20024655798,left,1,correct,decision,2,decision2,bolt
286,24,mug,1.31697884365,right,1,correct,arm2,1,arm21,bolt
287,24,branch,0.733581239618,left,1,correct,arm2,2,arm22,bolt
288,24,bolt,0.767074547869,right,1,correct,arm2,3,arm23,bolt
289,25,lion,3.05034274518,space,1,correct,target,NaN,targetNaN,lion
290,25,coffeepot,5.1835326555,left,1,correct,path,1,path1,lion
291,25,mosquito,0.100242060292,left,1,correct,path,2,path2,lion
292,25,canoe,0.216910351964,right,1,correct,path,3,path3,lion
293,25,goose,14.0833772286,right,1,correct,decision,1,decision1,lion
294,25,sailor,2.86699603449,right,1,correct,arm1,1,arm11,lion
295,25,cooker,0.566915830695,right,1,correct,arm1,2,arm12,lion
296,25,tooth,0.366937624875,right,1,correct,arm1,3,arm13,lion
297,25,crutches,5.15020718055,right,1,correct,decision,2,decision2,lion
298,25,stapler,1.66689738714,right,1,correct,arm2,1,arm21,lion
299,25,rose,2.38355614009,right,1,correct,arm2,2,arm22,lion
300,25,lion,1.81690866156,left,1,correct,arm2,3,arm23,lion
301,26,bolt,0.966999626601,space,1,correct,target,NaN,targetNaN,bolt
302,26,coffeepot,5.90013677206,left,1,correct,path,1,path1,bolt
303,26,mosquito,0.600666624205,left,1,correct,path,2,path2,bolt
304,26,canoe,0.483576334418,right,1,correct,path,3,path3,bolt
305,26,domino,3.23360342621,right,1,correct,decision,1,decision1,bolt
306,26,ambulance,2.80017876058,right,1,correct,arm1,1,arm11,bolt
307,26,trunk,0.933577858803,left,1,correct,arm1,2,arm12,bolt
308,26,peach,0.2002667825,left,1,correct,arm1,3,arm13,bolt
309,26,garlic,2.73370107742,left,1,correct,decision,2,decision2,bolt
310,26,mug,1.15021925489,right,1,correct,arm2,1,arm21,bolt
311,26,branch,0.750249561475,left,1,correct,arm2,2,arm22,bolt
312,26,bolt,1.30021845496,right,1,correct,arm2,3,arm23,bolt
313,27,lion,0.766996668388,space,1,correct,target,NaN,targetNaN,lion
314,27,coffeepot,1.20026466949,left,1,correct,path,1,path1,lion
315,27,mosquito,0.100262586667,left,1,correct,path,2,path2,lion
316,27,canoe,0.150269665248,right,1,correct,path,3,path3,lion
317,27,goose,0.966994495007,right,1,correct,decision,1,decision1,lion
318,27,sailor,0.717030944416,right,1,correct,arm1,1,arm11,lion
319,27,cooker,0.150314944016,right,1,correct,arm1,2,arm12,lion
320,27,tooth,0.1175479072,right,1,correct,arm1,3,arm13,lion
321,27,crutches,0.467008531426,right,1,correct,decision,2,decision2,lion
322,27,stapler,0.733614444048,right,1,correct,arm2,1,arm21,lion
323,27,rose,0.900277438103,right,1,correct,arm2,2,arm22,lion
324,27,lion,0.966743348775,left,1,correct,arm2,3,arm23,lion
325,28,bolt,1.40030022842,space,1,correct,target,NaN,targetNaN,bolt
326,28,coffeepot,4.18386681281,left,1,correct,path,1,path1,bolt
327,28,mosquito,0.0835855109151,left,1,correct,path,2,path2,bolt
328,28,canoe,0.18355408745,right,1,correct,path,3,path3,bolt
329,28,domino,5.38355614009,left,1,correct,decision,1,decision1,bolt
330,28,ambulance,0.916953306422,right,1,correct,arm1,1,arm11,bolt
331,28,trunk,0.533758490901,left,1,correct,arm1,2,arm12,bolt
332,28,peach,0.466950272744,left,1,correct,arm1,3,arm13,bolt
333,28,garlic,0.66688048307,left,1,correct,decision,2,decision2,bolt
334,28,mug,0.766939918999,right,1,correct,arm2,1,arm21,bolt
335,28,branch,0.566938470079,left,1,correct,arm2,2,arm22,bolt
336,28,bolt,0.633582779096,right,1,correct,arm2,3,arm23,bolt
337,29,lion,0.766983990333,space,1,correct,target,NaN,targetNaN,lion
338,29,coffeepot,0.816920132178,left,1,correct,path,1,path1,lion
339,29,mosquito,0.100245380735,left,1,correct,path,2,path2,lion
340,29,canoe,0.150391314204,right,1,correct,path,3,path3,lion
341,29,goose,0.566950846275,left,1,correct,decision,1,decision1,lion
342,29,sailor,0.633628963439,right,1,correct,arm1,1,arm11,lion
343,29,cooker,0.150252459316,right,1,correct,arm1,2,arm12,lion
344,29,tooth,0.100810459758,right,1,correct,arm1,3,arm13,lion
345,29,crutches,0.383691372674,left,1,correct,decision,2,decision2,lion
346,29,stapler,0.7003194568,right,1,correct,arm2,1,arm21,lion
347,29,rose,0.634002362344,right,1,correct,arm2,2,arm22,lion
348,29,lion,0.416948929474,left,1,correct,arm2,3,arm23,lion
349,30,bolt,0.983689682267,space,-1,miss,target,NaN,targetNaN,bolt
350,30,coffeepot,3.6003200907,left,-1,miss,path,1,path1,bolt
351,30,mosquito,0.100229080379,left,-1,miss,path,2,path2,bolt
352,30,canoe,0.183588801172,right,-1,miss,path,3,path3,bolt
353,30,goose,6.88359915492,left,-1,miss,decision,1,decision1,bolt
354,30,sailor,0.683615515645,right,-1,miss,arm1,1,arm11,bolt
355,30,cooker,0.116902835689,right,-1,miss,arm1,2,arm12,bolt
356,30,tooth,0.100236324982,right,-1,miss,arm1,3,arm13,bolt
357,30,crutches,0.40030143585,right,-1,miss,decision,2,decision2,bolt
358,30,stapler,2.50026910681,right,-1,miss,arm2,1,arm21,bolt
359,30,rose,0.500259749198,right,-1,miss,arm2,2,arm22,bolt
360,30,lion,0.366944265761,left,-1,miss,arm2,3,arm23,bolt
361,31,bolt,2.23366289233,space,1,correct,target,NaN,targetNaN,bolt
362,31,coffeepot,6.31682942371,left,1,correct,path,1,path1,bolt
363,31,mosquito,0.0668867013542,left,1,correct,path,2,path2,bolt
364,31,canoe,0.116884422323,right,1,correct,path,3,path3,bolt
365,31,domino,1.78354696359,right,1,correct,decision,1,decision1,bolt
366,31,ambulance,0.783623031921,right,1,correct,arm1,1,arm11,bolt
367,31,trunk,0.533582809282,left,1,correct,arm1,2,arm12,bolt
368,31,peach,0.234017274152,left,1,correct,arm1,3,arm13,bolt
369,31,garlic,4.36692494682,left,1,correct,decision,2,decision2,bolt
370,31,mug,1.11725812309,right,1,correct,arm2,1,arm21,bolt
371,31,branch,0.533599109638,left,1,correct,arm2,2,arm22,bolt
372,31,bolt,0.583366814466,right,1,correct,arm2,3,arm23,bolt
373,32,bolt,0.733782881064,space,1,correct,target,NaN,targetNaN,bolt
374,32,coffeepot,0.866900345356,left,1,correct,path,1,path1,bolt
375,32,mosquito,0.0502721103014,left,1,correct,path,2,path2,bolt
376,32,canoe,0.100257455074,right,1,correct,path,3,path3,bolt
377,32,domino,2.55021068211,left,1,correct,decision,1,decision1,bolt
378,32,ambulance,0.750248354041,right,1,correct,arm1,1,arm11,bolt
379,32,trunk,0.650460892577,left,1,correct,arm1,2,arm12,bolt
380,32,peach,0.433700262405,left,1,correct,arm1,3,arm13,bolt
381,32,garlic,1.91694243952,right,1,correct,decision,2,decision2,bolt
382,32,mug,0.783593147934,right,1,correct,arm2,1,arm21,bolt
383,32,branch,0.90024876155,left,1,correct,arm2,2,arm22,bolt
384,32,bolt,0.266944597805,right,1,correct,arm2,3,arm23,bolt
385,33,bolt,0.650366109023,space,1,correct,target,NaN,targetNaN,bolt
386,33,coffeepot,0.583579322817,left,1,correct,path,1,path1,bolt
387,33,mosquito,0.0335862806539,left,1,correct,path,2,path2,bolt
388,33,canoe,0.0836193190617,right,1,correct,path,3,path3,bolt
389,33,domino,1.41694168487,left,1,correct,decision,1,decision1,bolt
390,33,ambulance,0.766956219356,right,1,correct,arm1,1,arm11,bolt
391,33,trunk,0.65034135663,left,1,correct,arm1,2,arm12,bolt
392,33,peach,0.75028186033,left,1,correct,arm1,3,arm13,bolt
393,33,garlic,1.05034153775,left,1,correct,decision,2,decision2,bolt
394,33,mug,0.616927739011,right,1,correct,arm2,1,arm21,bolt
395,33,branch,0.433666756117,left,1,correct,arm2,2,arm22,bolt
396,33,bolt,0.316969787893,right,1,correct,arm2,3,arm23,bolt
397,34,lion,0.983630216152,space,1,correct,target,NaN,targetNaN,lion
398,34,coffeepot,0.716908088026,left,1,correct,path,1,path1,lion
399,34,mosquito,0.0335579059597,left,1,correct,path,2,path2,lion
400,34,canoe,0.250415432695,right,1,correct,path,3,path3,lion
401,34,goose,1.20028036613,left,1,correct,decision,1,decision1,lion
402,34,sailor,0.617118211694,right,1,correct,arm1,1,arm11,lion
403,34,cooker,0.0670222357992,right,1,correct,arm1,2,arm12,lion
404,34,tooth,0.150443837575,right,1,correct,arm1,3,arm13,lion
405,34,crutches,1.150278721,right,1,correct,decision,2,decision2,lion
406,34,stapler,0.816746865426,right,1,correct,arm2,1,arm21,lion
407,34,rose,0.433608497436,right,1,correct,arm2,2,arm22,lion
408,34,lion,0.366906533455,left,1,correct,arm2,3,arm23,lion
409,35,lion,0.533622352739,space,1,correct,target,NaN,targetNaN,lion
410,35,coffeepot,0.566992502742,left,1,correct,path,1,path1,lion
411,35,mosquito,0.0668743251576,left,1,correct,path,2,path2,lion
412,35,canoe,0.216928161613,right,1,correct,path,3,path3,lion
413,35,goose,1.23359889834,left,1,correct,decision,1,decision1,lion
414,35,sailor,0.300270374616,right,1,correct,arm1,1,arm11,lion
415,35,cooker,0.0835933592348,right,1,correct,arm1,2,arm12,lion
416,35,tooth,0.166978737996,right,1,correct,arm1,3,arm13,lion
417,35,crutches,0.767030778393,left,1,correct,decision,2,decision2,lion
418,35,stapler,0.700265122278,right,1,correct,arm2,1,arm21,lion
419,35,rose,0.867063952637,right,1,correct,arm2,2,arm22,lion
420,35,lion,0.266957879577,left,1,correct,arm2,3,arm23,lion
421,36,lion,0.53376060391,space,1,correct,target,NaN,targetNaN,lion
422,36,coffeepot,0.600248852108,left,1,correct,path,1,path1,lion
423,36,mosquito,0.150235857102,left,1,correct,path,2,path2,lion
424,36,canoe,0.183575821259,right,1,correct,path,3,path3,lion
425,36,goose,0.516942862119,right,1,correct,decision,1,decision1,lion
426,36,sailor,2.70022557882,right,1,correct,arm1,1,arm11,lion
427,36,cooker,0.366912872482,right,1,correct,arm1,2,arm12,lion
428,36,tooth,0.466898654949,right,1,correct,arm1,3,arm13,lion
429,36,crutches,1.28372792773,left,1,correct,decision,2,decision2,lion
430,36,stapler,3.15020567126,right,1,correct,arm2,1,arm21,lion
431,36,rose,0.700286856087,right,1,correct,arm2,2,arm22,lion
432,36,lion,0.317043743214,left,1,correct,arm2,3,arm23,lion
433,37,bolt,0.466977440005,space,1,correct,target,NaN,targetNaN,bolt
434,37,coffeepot,0.600259719012,left,1,correct,path,1,path1,bolt
435,37,mosquito,0.183562841345,left,1,correct,path,2,path2,bolt
436,37,canoe,0.200375753401,right,1,correct,path,3,path3,bolt
437,37,domino,1.05030320172,right,1,correct,decision,1,decision1,bolt
438,37,ambulance,0.983570750037,right,1,correct,arm1,1,arm11,bolt
439,37,trunk,0.683593781837,left,1,correct,arm1,2,arm12,bolt
440,37,peach,0.250250014263,left,1,correct,arm1,3,arm13,bolt
441,37,garlic,0.683633627152,left,1,correct,decision,2,decision2,bolt
442,37,mug,0.933610459516,right,1,correct,arm2,1,arm21,bolt
443,37,branch,0.784297081844,left,1,correct,arm2,2,arm22,bolt
444,37,bolt,0.566915528836,right,1,correct,arm2,3,arm23,bolt
445,38,lion,0.617193374449,space,-1,miss,target,NaN,targetNaN,lion
446,38,coffeepot,3.43366162452,left,-1,miss,path,1,path1,lion
447,38,mosquito,0.100257756932,left,-1,miss,path,2,path2,lion
448,38,canoe,0.183559822761,right,-1,miss,path,3,path3,lion
449,38,domino,6.83350091508,right,-1,miss,decision,1,decision1,lion
450,38,ambulance,0.666924252546,right,-1,miss,arm1,1,arm11,lion
451,38,trunk,2.63355289511,left,-1,miss,arm1,2,arm12,lion
452,38,peach,0.517040664258,left,-1,miss,arm1,3,arm13,lion
453,38,garlic,2.96690031517,left,-1,miss,decision,2,decision2,lion
454,38,mug,0.73408594695,right,-1,miss,arm2,1,arm21,lion
455,38,branch,0.633596664585,left,-1,miss,arm2,2,arm22,lion
456,38,bolt,0.650254119538,right,-1,miss,arm2,3,arm23,lion
457,39,bolt,2.88365862103,space,1,correct,target,NaN,targetNaN,bolt
458,39,coffeepot,0.733654289363,left,1,correct,path,1,path1,bolt
459,39,mosquito,0.200261952765,left,1,correct,path,2,path2,bolt
460,39,canoe,0.250242467801,right,1,correct,path,3,path3,bolt
461,39,domino,2.86692630518,left,1,correct,decision,1,decision1,bolt
462,39,ambulance,3.78353066323,right,1,correct,arm1,1,arm11,bolt
463,39,trunk,0.550243584678,left,1,correct,arm1,2,arm12,bolt
464,39,peach,0.3502454562,left,1,correct,arm1,3,arm13,bolt
465,39,garlic,1.78362937095,left,1,correct,decision,2,decision2,bolt
466,39,mug,1.03366416013,right,1,correct,arm2,1,arm21,bolt
467,39,branch,0.650251100953,left,1,correct,arm2,2,arm22,bolt
468,39,bolt,0.200879857016,right,1,correct,arm2,3,arm23,bolt
469,40,lion,0.400071721568,space,1,correct,target,NaN,targetNaN,lion
470,40,coffeepot,0.567615236728,left,1,correct,path,1,path1,lion
471,40,mosquito,0.16693889268,left,1,correct,path,2,path2,lion
472,40,canoe,0.200226333467,right,1,correct,path,3,path3,lion
473,40,goose,1.28341882468,right,1,correct,decision,1,decision1,lion
474,40,sailor,0.717119087084,right,1,correct,arm1,1,arm11,lion
475,40,cooker,0.0342899127056,right,1,correct,arm1,2,arm12,lion
476,40,tooth,0.23359648347,right,1,correct,arm1,3,arm13,lion
477,40,crutches,1.25025967373,left,1,correct,decision,2,decision2,lion
478,40,stapler,0.783630276523,right,1,correct,arm2,1,arm21,lion
479,40,rose,0.417073597015,right,1,correct,arm2,2,arm22,lion
480,40,lion,0.26691833612,left,1,correct,arm2,3,arm23,lion
481,41,lion,0.450479668173,space,1,correct,target,NaN,targetNaN,lion
482,41,coffeepot,0.466770968824,left,1,correct,path,1,path1,lion
483,41,mosquito,0.166906291968,left,1,correct,path,2,path2,lion
484,41,canoe,0.183578236126,right,1,correct,path,3,path3,lion
485,41,goose,0.650438555052,left,1,correct,decision,1,decision1,lion
486,41,sailor,0.633811889661,right,1,correct,arm1,1,arm11,lion
487,41,cooker,0.100235419407,right,1,correct,arm1,2,arm12,lion
488,41,tooth,0.150265137371,right,1,correct,arm1,3,arm13,lion
489,41,crutches,1.78364989732,left,1,correct,decision,2,decision2,lion
490,41,stapler,0.683594083695,right,1,correct,arm2,1,arm21,lion
491,41,rose,0.166959419055,right,1,correct,arm2,2,arm22,lion
492,41,lion,0.233581390547,left,1,correct,arm2,3,arm23,lion
493,42,bolt,0.500288425751,space,1,correct,target,NaN,targetNaN,bolt
494,42,coffeepot,0.467023020631,left,1,correct,path,1,path1,bolt
495,42,mosquito,0.183694753489,left,1,correct,path,2,path2,bolt
496,42,canoe,0.25025454214,right,1,correct,path,3,path3,bolt
497,42,domino,0.600412459389,right,1,correct,decision,1,decision1,bolt
498,42,ambulance,0.850289678463,right,1,correct,arm1,1,arm11,bolt
499,42,trunk,0.50044448657,left,1,correct,arm1,2,arm12,bolt
500,42,peach,0.200230559486,left,1,correct,arm1,3,arm13,bolt
501,42,garlic,1.58361464026,left,1,correct,decision,2,decision2,bolt
502,42,mug,3.16690689568,right,1,correct,arm2,1,arm21,bolt
503,42,branch,0.583575700515,left,1,correct,arm2,2,arm22,bolt
504,42,bolt,1.05025098021,right,1,correct,arm2,3,arm23,bolt
505,43,lion,0.383630699125,space,1,correct,target,NaN,targetNaN,lion
506,43,coffeepot,0.416953155493,left,1,correct,path,1,path1,lion
507,43,mosquito,0.166936175954,left,1,correct,path,2,path2,lion
508,43,canoe,0.200245652408,right,1,correct,path,3,path3,lion
509,43,goose,0.900288606866,left,1,correct,decision,1,decision1,lion
510,43,sailor,0.600290810433,right,1,correct,arm1,1,arm11,lion
511,43,cooker,0.0669141704732,right,1,correct,arm1,2,arm12,lion
512,43,tooth,0.266948521965,right,1,correct,arm1,3,arm13,lion
513,43,crutches,0.583676823097,right,1,correct,decision,2,decision2,lion
514,43,stapler,1.35031971338,right,1,correct,arm2,1,arm21,lion
515,43,rose,0.483673230981,right,1,correct,arm2,2,arm22,lion
516,43,lion,0.284172565232,left,1,correct,arm2,3,arm23,lion
517,44,lion,0.550407493817,space,1,correct,target,NaN,targetNaN,lion
518,44,coffeepot,0.433437041836,left,1,correct,path,1,path1,lion
519,44,mosquito,0.183721015174,left,1,correct,path,2,path2,lion
520,44,canoe,0.283696232595,right,1,correct,path,3,path3,lion
521,44,goose,2.6502529121,right,1,correct,decision,1,decision1,lion
522,44,sailor,0.617003505482,right,1,correct,arm1,1,arm11,lion
523,44,cooker,0.0669395265834,right,1,correct,arm1,2,arm12,lion
524,44,tooth,0.200159019033,right,1,correct,arm1,3,arm13,lion
525,44,crutches,1.10042830696,left,1,correct,decision,2,decision2,lion
526,44,stapler,0.667011489638,right,1,correct,arm2,1,arm21,lion
527,44,rose,0.233580484972,right,1,correct,arm2,2,arm22,lion
528,44,lion,0.283392261134,left,1,correct,arm2,3,arm23,lion
529,45,lion,0.416948929474,space,0,wrong,target,NaN,targetNaN,lion
530,45,coffeepot,0.816914095009,left,0,wrong,path,1,path1,lion
531,45,mosquito,2.38354285832,left,0,wrong,path,2,path2,lion
532,45,canoe,0.183599668076,right,0,wrong,path,3,path3,lion
533,45,domino,1.01697018031,right,0,wrong,decision,1,decision1,lion
534,45,ambulance,8.16680547124,right,0,wrong,arm1,1,arm11,lion
535,45,trunk,1.15033184809,left,0,wrong,arm1,2,arm12,lion
536,45,peach,0.183586990021,left,0,wrong,arm1,3,arm13,lion
537,45,crutches,1.13363062366,left,0,wrong,decision,2,decision2,lion
538,45,stapler,3.65019948316,right,0,wrong,arm2,1,arm21,lion
539,45,rose,0.216936009932,right,0,wrong,arm2,2,arm22,lion
540,45,lion,0.20024142639,left,0,wrong,arm2,3,arm23,lion
541,46,bolt,1.48381299144,space,1,correct,target,NaN,targetNaN,bolt
542,46,coffeepot,6.81683561181,left,1,correct,path,1,path1,bolt
543,46,mosquito,0.216903107361,left,1,correct,path,2,path2,bolt
544,46,canoe,0.567053478149,right,1,correct,path,3,path3,bolt
545,46,domino,0.550298522916,left,1,correct,decision,1,decision1,bolt
546,46,ambulance,0.867386639322,right,1,correct,arm1,1,arm11,bolt
547,46,trunk,0.71697540246,left,1,correct,arm1,2,arm12,bolt
548,46,peach,1.40022536752,left,1,correct,arm1,3,arm13,bolt
549,46,garlic,1.71697238388,left,1,correct,decision,2,decision2,bolt
550,46,mug,0.850400158657,right,1,correct,arm2,1,arm21,bolt
551,46,branch,0.567037781509,left,1,correct,arm2,2,arm22,bolt
552,46,bolt,0.333571700891,right,1,correct,arm2,3,arm23,bolt
553,47,bolt,0.666962890428,space,1,correct,target,NaN,targetNaN,bolt
554,47,coffeepot,0.466796324934,left,1,correct,path,1,path1,bolt
555,47,mosquito,0.216909748247,left,1,correct,path,2,path2,bolt
556,47,canoe,0.200218485147,right,1,correct,path,3,path3,bolt
557,47,domino,1.16699111419,left,1,correct,decision,1,decision1,bolt
558,47,ambulance,1.08361298003,right,1,correct,arm1,1,arm11,bolt
559,47,trunk,0.450261424512,left,1,correct,arm1,2,arm12,bolt
560,47,peach,0.233719038001,left,1,correct,arm1,3,arm13,bolt
561,47,garlic,4.41696190939,right,1,correct,decision,2,decision2,bolt
562,47,mug,0.683587744668,right,1,correct,arm2,1,arm21,bolt
563,47,branch,0.26693191975,left,1,correct,arm2,2,arm22,bolt
564,47,bolt,0.200334096935,right,1,correct,arm2,3,arm23,bolt
565,48,bolt,0.53435918922,space,1,correct,target,NaN,targetNaN,bolt
566,48,coffeepot,0.400282418768,left,1,correct,path,1,path1,bolt
567,48,mosquito,0.133726010931,left,1,correct,path,2,path2,bolt
568,48,canoe,0.166948250293,right,1,correct,path,3,path3,bolt
569,48,domino,0.850325297761,left,1,correct,decision,1,decision1,bolt
570,48,ambulance,0.81704449786,right,1,correct,arm1,1,arm11,bolt
571,48,trunk,0.833654862894,left,1,correct,arm1,2,arm12,bolt
572,48,peach,0.333644448778,left,1,correct,arm1,3,arm13,bolt
573,48,garlic,1.85025647403,left,1,correct,decision,2,decision2,bolt
574,48,mug,0.683686452381,right,1,correct,arm2,1,arm21,bolt
575,48,branch,0.650233593163,left,1,correct,arm2,2,arm22,bolt
576,48,bolt,0.250952137022,right,1,correct,arm2,3,arm23,bolt
577,49,lion,0.650288229543,space,1,correct,target,NaN,targetNaN,lion
578,49,coffeepot,2.28361473081,left,1,correct,path,1,path1,lion
579,49,mosquito,0.166900858516,left,1,correct,path,2,path2,lion
580,49,canoe,0.200256217454,right,1,correct,path,3,path3,lion
581,49,goose,5.56693152733,left,1,correct,decision,1,decision1,lion
582,49,sailor,0.716913823336,right,1,correct,arm1,1,arm11,lion
583,49,cooker,0.150323094194,right,1,correct,arm1,2,arm12,lion
584,49,tooth,0.166952778169,right,1,correct,arm1,3,arm13,lion
585,49,crutches,2.50024284512,right,1,correct,decision,2,decision2,lion
586,49,stapler,3.7002141082,right,1,correct,arm2,1,arm21,lion
587,49,rose,1.46689895681,right,1,correct,arm2,2,arm22,lion
588,49,lion,1.166912631,left,1,correct,arm2,3,arm23,lion
589,50,bolt,0.700277196617,space,1,correct,target,NaN,targetNaN,bolt
590,50,coffeepot,0.817063213084,left,1,correct,path,1,path1,bolt
591,50,mosquito,0.216728029459,left,1,correct,path,2,path2,bolt
592,50,canoe,0.13390561671,right,1,correct,path,3,path3,bolt
593,50,domino,0.567018764427,left,1,correct,decision,1,decision1,bolt
594,50,ambulance,0.683712714067,right,1,correct,arm1,1,arm11,bolt
595,50,trunk,0.600416383548,left,1,correct,arm1,2,arm12,bolt
596,50,peach,0.266928901166,left,1,correct,arm1,3,arm13,bolt
597,50,garlic,0.983875325215,left,1,correct,decision,2,decision2,bolt
598,50,mug,1.85030658254,right,1,correct,arm2,1,arm21,bolt
599,50,branch,0.600288395565,left,1,correct,arm2,2,arm22,bolt
600,50,bolt,0.533689063457,right,1,correct,arm2,3,arm23,bolt
