pic_index,trial_num,pic_name,rt,resp,feedback_code,feedback,segment,segment_index,pic_type,trial_target
1,1,lion,0.916886293839,space,1,correct,target,NaN,targetNaN,lion
2,1,coffeepot,1.30026524303,right,1,correct,path,1,path1,lion
3,1,mosquito,0.114061140222,left,1,correct,path,2,path2,lion
4,1,canoe,1.61690992936,right,1,correct,path,3,path3,lion
5,1,goose,2.46689714566,right,1,correct,decision,1,decision1,lion
6,1,sailor,0.866945925984,left,1,correct,arm1,1,arm11,lion
7,1,cooker,0.550237245639,right,1,correct,arm1,2,arm12,lion
8,1,tooth,0.433569557703,left,1,correct,arm1,3,arm13,lion
9,1,crutches,1.61695068025,right,1,correct,decision,2,decision2,lion
10,1,stapler,0.633549574661,right,1,correct,arm2,1,arm21,lion
11,1,rose,0.266913808242,right,1,correct,arm2,2,arm22,lion
12,1,lion,0.316921188671,left,1,correct,arm2,3,arm23,lion
13,2,lion,4.26687064249,space,1,correct,target,NaN,targetNaN,lion
14,2,coffeepot,1.25021530053,right,1,correct,path,1,path1,lion
15,2,mosquito,0.114086194473,left,1,correct,path,2,path2,lion
16,2,canoe,0.46691737017,right,1,correct,path,3,path3,lion
17,2,goose,0.816911378279,left,1,correct,decision,1,decision1,lion
18,2,sailor,0.633580967959,left,1,correct,arm1,1,arm11,lion
19,2,cooker,0.616921701847,right,1,correct,arm1,2,arm12,lion
20,2,tooth,0.600261228305,left,1,correct,arm1,3,arm13,lion
21,2,crutches,1.4503036847,left,1,correct,decision,2,decision2,lion
22,2,stapler,0.600356011855,right,1,correct,arm2,1,arm21,lion
23,2,rose,0.650287323966,right,1,correct,arm2,2,arm22,lion
24,2,lion,1.61689544015,left,1,correct,arm2,3,arm23,lion
25,3,lion,4.85037600998,space,1,correct,target,NaN,targetNaN,lion
26,3,coffeepot,2.16693285551,right,1,correct,path,1,path1,lion
27,3,mosquito,0.113965451092,left,1,correct,path,2,path2,lion
28,3,canoe,1.41690033027,right,1,correct,path,3,path3,lion
29,3,goose,2.01765932316,left,1,correct,decision,1,decision1,lion
30,3,sailor,0.833571248106,left,1,correct,arm1,1,arm11,lion
31,3,cooker,0.600335485477,right,1,correct,arm1,2,arm12,lion
32,3,tooth,0.867046746702,left,1,correct,arm1,3,arm13,lion
33,3,crutches,2.23368764472,left,1,correct,decision,2,decision2,lion
34,3,stapler,0.800262677236,right,1,correct,arm2,1,arm21,lion
35,3,rose,0.966948008805,right,1,correct,arm2,2,arm22,lion
36,3,lion,3.61689725131,left,1,correct,arm2,3,arm23,lion
37,4,bolt,0.816942771562,space,1,correct,target,NaN,targetNaN,bolt
38,4,coffeepot,1.13359590995,right,1,correct,path,1,path1,bolt
39,4,mosquito,0.113243707528,left,1,correct,path,2,path2,bolt
40,4,canoe,0.416903348843,right,1,correct,path,3,path3,bolt
41,4,domino,0.517083528161,right,1,correct,decision,1,decision1,bolt
42,4,ambulance,1.35035171038,left,1,correct,arm1,1,arm11,bolt
43,4,trunk,1.55020373936,left,1,correct,arm1,2,arm12,bolt
44,4,peach,0.583378285082,left,1,correct,arm1,3,arm13,bolt
45,4,garlic,1.3003032772,left,1,correct,decision,2,decision2,bolt
46,4,mug,1.43355506849,right,1,correct,arm2,1,arm21,bolt
47,4,branch,0.450352283908,right,1,correct,arm2,2,arm22,bolt
48,4,bolt,0.700252746072,right,1,correct,arm2,3,arm23,bolt
49,5,bolt,0.700279309618,space,1,correct,target,NaN,targetNaN,bolt
50,5,coffeepot,1.75122939402,right,1,correct,path,1,path1,bolt
51,5,mosquito,0.112923435721,left,1,correct,path,2,path2,bolt
52,5,canoe,0.650246271223,right,1,correct,path,3,path3,bolt
53,5,domino,2.10023994729,right,1,correct,decision,1,decision1,bolt
54,5,ambulance,1.9002629489,left,1,correct,arm1,1,arm11,bolt
55,5,trunk,0.416946514597,left,1,correct,arm1,2,arm12,bolt
56,5,peach,0.433557181503,left,1,correct,arm1,3,arm13,bolt
57,5,garlic,2.15050934085,right,1,correct,decision,2,decision2,bolt
58,5,mug,2.00026805031,right,1,correct,arm2,1,arm21,bolt
59,5,branch,0.400259779388,right,1,correct,arm2,2,arm22,bolt
60,5,bolt,0.86691513643,right,1,correct,arm2,3,arm23,bolt
61,6,lion,1.95026308473,space,-1,miss,target,NaN,targetNaN,lion
62,6,coffeepot,3.1335678371,right,-1,miss,path,1,path1,lion
63,6,mosquito,0.113839877988,left,-1,miss,path,2,path2,lion
64,6,canoe,0.350233079997,right,-1,miss,path,3,path3,lion
65,6,goose,1.20026255648,right,-1,miss,decision,1,decision1,lion
66,6,sailor,1.28357367807,left,-1,miss,arm1,1,arm11,lion
67,6,cooker,0.400262797979,right,-1,miss,arm1,2,arm12,lion
68,6,tooth,0.51690573353,left,-1,miss,arm1,3,arm13,lion
69,6,garlic,10.7000809886,right,-1,miss,decision,2,decision2,lion
70,6,mug,1.31705762871,right,-1,miss,arm2,1,arm21,lion
71,6,branch,0.31690820877,right,-1,miss,arm2,2,arm22,lion
72,6,bolt,1.08355894737,right,-1,miss,arm2,3,arm23,lion
73,7,bolt,0.733572485726,space,1,correct,target,NaN,targetNaN,bolt
74,7,coffeepot,1.05022411481,right,1,correct,path,1,path1,bolt
75,7,mosquito,0.114090420495,left,1,correct,path,2,path2,bolt
76,7,canoe,0.467480939915,right,1,correct,path,3,path3,bolt
77,7,domino,2.28371615525,left,1,correct,decision,1,decision1,bolt
78,7,ambulance,0.833572757387,left,1,correct,arm1,1,arm11,bolt
79,7,trunk,0.450301873541,left,1,correct,arm1,2,arm12,bolt
80,7,peach,0.216926652327,left,1,correct,arm1,3,arm13,bolt
81,7,garlic,0.766754276046,left,1,correct,decision,2,decision2,bolt
82,7,mug,1.2502098671,right,1,correct,arm2,1,arm21,bolt
83,7,branch,0.0669226225145,right,1,correct,arm2,2,arm22,bolt
84,7,bolt,0.816936432529,right,1,correct,arm2,3,arm23,bolt
85,8,lion,7.65013699846,space,1,correct,target,NaN,targetNaN,lion
86,8,coffeepot,3.28355043496,right,1,correct,path,1,path1,lion
87,8,mosquito,0.983576183498,left,1,correct,path,2,path2,lion
88,8,canoe,0.83359358563,right,1,correct,path,3,path3,lion
89,8,goose,8.35017361389,left,1,correct,decision,1,decision1,lion
90,8,sailor,0.750250467056,left,1,correct,arm1,1,arm11,lion
91,8,cooker,0.766903997835,right,1,correct,arm1,2,arm12,lion
92,8,tooth,0.533576470247,left,1,correct,arm1,3,arm13,lion
93,8,crutches,0.53367849841,right,1,correct,decision,2,decision2,lion
94,8,stapler,0.633714087526,right,1,correct,arm2,1,arm21,lion
95,8,rose,0.100253530909,right,1,correct,arm2,2,arm22,lion
96,8,lion,1.16694342057,left,1,correct,arm2,3,arm23,lion
97,9,bolt,2.93354163579,space,1,correct,target,NaN,targetNaN,bolt
98,9,coffeepot,0.950248897381,right,1,correct,path,1,path1,bolt
99,9,mosquito,0.114061743938,left,1,correct,path,2,path2,bolt
100,9,canoe,0.533592166888,right,1,correct,path,3,path3,bolt
101,9,domino,7.41682245077,right,1,correct,decision,1,decision1,bolt
102,9,ambulance,1.58355396672,left,1,correct,arm1,1,arm11,bolt
103,9,trunk,0.283582431963,left,1,correct,arm1,2,arm12,bolt
104,9,peach,0.266901733907,left,1,correct,arm1,3,arm13,bolt
105,9,garlic,0.46708158117,right,1,correct,decision,2,decision2,bolt
106,9,mug,1.16696636179,right,1,correct,arm2,1,arm21,bolt
107,9,branch,0.167034883663,right,1,correct,arm2,2,arm22,bolt
108,9,bolt,0.433581028323,right,1,correct,arm2,3,arm23,bolt
109,10,lion,2.55021641742,space,1,correct,target,NaN,targetNaN,lion
110,10,coffeepot,1.38368986337,right,1,correct,path,1,path1,lion
111,10,mosquito,0.113895118076,left,1,correct,path,2,path2,lion
112,10,canoe,0.650275853346,right,1,correct,path,3,path3,lion
113,10,goose,1.05033278385,left,1,correct,decision,1,decision1,lion
114,10,sailor,2.98394143222,left,1,correct,arm1,1,arm11,lion
115,10,cooker,0.550236641924,right,1,correct,arm1,2,arm12,lion
116,10,tooth,0.483612557437,left,1,correct,arm1,3,arm13,lion
117,10,crutches,0.833744213,left,1,correct,decision,2,decision2,lion
118,10,stapler,0.483628857779,right,1,correct,arm2,1,arm21,lion
119,10,rose,0.266993498881,right,1,correct,arm2,2,arm22,lion
120,10,lion,0.250230997175,left,1,correct,arm2,3,arm23,lion
121,11,bolt,0.567006086363,space,1,correct,target,NaN,targetNaN,bolt
122,11,coffeepot,1.10022998597,right,1,correct,path,1,path1,bolt
123,11,mosquito,0.114027332078,left,1,correct,path,2,path2,bolt
124,11,canoe,0.350278056911,right,1,correct,path,3,path3,bolt
125,11,domino,4.80022796351,right,1,correct,decision,1,decision1,bolt
126,11,ambulance,1.36687151786,left,1,correct,arm1,1,arm11,bolt
127,11,trunk,0.616950982119,left,1,correct,arm1,2,arm12,bolt
128,11,peach,0.166906895683,left,1,correct,arm1,3,arm13,bolt
129,11,garlic,0.550551480294,right,1,correct,decision,2,decision2,bolt
130,11,mug,0.583593208299,right,1,correct,arm2,1,arm21,bolt
131,11,branch,0.0503309727064,right,1,correct,arm2,2,arm22,bolt
132,11,bolt,0.01753193888,right,1,correct,arm2,3,arm23,bolt
133,12,lion,1.35100855437,space,1,correct,target,NaN,targetNaN,lion
134,12,coffeepot,2.483545243,right,1,correct,path,1,path1,lion
135,12,mosquito,0.113876402844,left,1,correct,path,2,path2,lion
136,12,canoe,1.13366533739,right,1,correct,path,3,path3,lion
137,12,goose,4.63377113878,right,1,correct,decision,1,decision1,lion
138,12,sailor,1.03357752676,left,1,correct,arm1,1,arm11,lion
139,12,cooker,1.05003001982,right,1,correct,arm1,2,arm12,lion
140,12,tooth,0.500249787874,left,1,correct,arm1,3,arm13,lion
141,12,crutches,2.76695380449,left,1,correct,decision,2,decision2,lion
142,12,stapler,1.80023792482,right,1,correct,arm2,1,arm21,lion
143,12,rose,0.350386725957,right,1,correct,arm2,2,arm22,lion
144,12,lion,0.850239268097,left,1,correct,arm2,3,arm23,lion
145,13,bolt,8.01659617769,space,1,correct,target,NaN,targetNaN,bolt
146,13,coffeepot,1.31689039913,right,1,correct,path,1,path1,bolt
147,13,mosquito,0.113416672422,left,1,correct,path,2,path2,bolt
148,13,canoe,1.0502147572,right,1,correct,path,3,path3,bolt
149,13,domino,1.86707813999,left,1,correct,decision,1,decision1,bolt
150,13,ambulance,0.816937036245,left,1,correct,arm1,1,arm11,bolt
151,13,trunk,0.366937926723,left,1,correct,arm1,2,arm12,bolt
152,13,peach,0.316899756726,left,1,correct,arm1,3,arm13,bolt
153,13,garlic,0.650304529903,left,1,correct,decision,2,decision2,bolt
154,13,mug,0.666944175202,right,1,correct,arm2,1,arm21,bolt
155,13,branch,0.666929384141,right,1,correct,arm2,2,arm22,bolt
156,13,bolt,0.716905371301,right,1,correct,arm2,3,arm23,bolt
157,14,bolt,13.1167289652,space,1,correct,target,NaN,targetNaN,bolt
158,14,coffeepot,2.4168942931,right,1,correct,path,1,path1,bolt
159,14,mosquito,0.114059329077,left,1,correct,path,2,path2,bolt
160,14,canoe,0.466890202908,right,1,correct,path,3,path3,bolt
161,14,domino,2.86691211784,left,1,correct,decision,1,decision1,bolt
162,14,ambulance,1.6502100482,left,1,correct,arm1,1,arm11,bolt
163,14,trunk,0.316912132927,left,1,correct,arm1,2,arm12,bolt
164,14,peach,0.400240158575,left,1,correct,arm1,3,arm13,bolt
165,14,garlic,7.90015156312,right,1,correct,decision,2,decision2,bolt
166,14,mug,0.600235268488,right,1,correct,arm2,1,arm21,bolt
167,14,branch,0.316945941071,right,1,correct,arm2,2,arm22,bolt
168,14,bolt,0.466907106995,right,1,correct,arm2,3,arm23,bolt
169,15,bolt,1.25030555623,space,1,correct,target,NaN,targetNaN,bolt
170,15,coffeepot,0.984287663858,right,1,correct,path,1,path1,bolt
171,15,mosquito,0.883635679784,left,1,correct,path,2,path2,bolt
172,15,canoe,0.113317662865,right,1,correct,path,3,path3,bolt
173,15,domino,2.53355745318,left,1,correct,decision,1,decision1,bolt
174,15,ambulance,0.867004788379,left,1,correct,arm1,1,arm11,bolt
175,15,trunk,0.383571233004,left,1,correct,arm1,2,arm12,bolt
176,15,peach,0.250241864094,left,1,correct,arm1,3,arm13,bolt
177,15,garlic,2.03356454684,right,1,correct,decision,2,decision2,bolt
178,15,mug,0.800267506958,right,1,correct,arm2,1,arm21,bolt
179,15,branch,0.333576228761,right,1,correct,arm2,2,arm22,bolt
180,15,bolt,0.483610142561,right,1,correct,arm2,3,arm23,bolt
181,16,bolt,0.900345356247,space,1,correct,target,NaN,targetNaN,bolt
182,16,coffeepot,1.76690309227,right,1,correct,path,1,path1,bolt
183,16,mosquito,0.266897206035,left,1,correct,path,2,path2,bolt
184,16,canoe,0.283655481704,right,1,correct,path,3,path3,bolt
185,16,domino,1.26708647129,right,1,correct,decision,1,decision1,bolt
186,16,ambulance,1.88354421667,left,1,correct,arm1,1,arm11,bolt
187,16,trunk,0.250249108693,left,1,correct,arm1,2,arm12,bolt
188,16,peach,0.366910457611,left,1,correct,arm1,3,arm13,bolt
189,16,garlic,3.51687554768,left,1,correct,decision,2,decision2,bolt
190,16,mug,1.38358119434,right,1,correct,arm2,1,arm21,bolt
191,16,branch,0.400240158589,right,1,correct,arm2,2,arm22,bolt
192,16,bolt,1.15024068684,right,1,correct,arm2,3,arm23,bolt
193,17,bolt,0.600273302654,space,1,correct,target,NaN,targetNaN,bolt
194,17,coffeepot,1.55023543449,right,1,correct,path,1,path1,bolt
195,17,mosquito,0.113045990249,left,1,correct,path,2,path2,bolt
196,17,canoe,0.35032363754,right,1,correct,path,3,path3,bolt
197,17,domino,2.96686801632,left,1,correct,decision,1,decision1,bolt
198,17,ambulance,0.950345793957,left,1,correct,arm1,1,arm11,bolt
199,17,trunk,0.266953049853,left,1,correct,arm1,2,arm12,bolt
200,17,peach,0.23358954073,left,1,correct,arm1,3,arm13,bolt
201,17,garlic,0.716979326622,right,1,correct,decision,2,decision2,bolt
202,17,mug,0.383537726724,right,1,correct,arm2,1,arm21,bolt
203,17,branch,0.0669304708281,right,1,correct,arm2,2,arm22,bolt
204,17,bolt,0.0669537139183,right,1,correct,arm2,3,arm23,bolt
205,18,lion,1.66694025103,space,1,correct,target,NaN,targetNaN,lion
206,18,coffeepot,2.21712648262,right,1,correct,path,1,path1,lion
207,18,mosquito,1.13357357241,left,1,correct,path,2,path2,lion
208,18,canoe,1.41690546187,right,1,correct,path,3,path3,lion
209,18,goose,0.683608572901,left,1,correct,decision,1,decision1,lion
210,18,sailor,0.633666092035,left,1,correct,arm1,1,arm11,lion
211,18,cooker,0.717041811309,right,1,correct,arm1,2,arm12,lion
212,18,tooth,0.483707340987,left,1,correct,arm1,3,arm13,lion
213,18,crutches,0.600425439305,right,1,correct,decision,2,decision2,lion
214,18,stapler,0.650231178297,right,1,correct,arm2,1,arm21,lion
215,18,rose,0.133656281629,right,1,correct,arm2,2,arm22,lion
216,18,lion,0.233727490035,left,1,correct,arm2,3,arm23,lion
217,19,lion,1.05028358093,space,1,correct,target,NaN,targetNaN,lion
218,19,coffeepot,1.46770793747,right,1,correct,path,1,path1,lion
219,19,mosquito,0.112185693652,left,1,correct,path,2,path2,lion
220,19,canoe,0.567036875931,right,1,correct,path,3,path3,lion
221,19,goose,1.01674257903,left,1,correct,decision,1,decision1,lion
222,19,sailor,1.15024944073,left,1,correct,arm1,1,arm11,lion
223,19,cooker,0.350267491856,right,1,correct,arm1,2,arm12,lion
224,19,tooth,0.366959056832,left,1,correct,arm1,3,arm13,lion
225,19,crutches,0.483723339479,right,1,correct,decision,2,decision2,lion
226,19,stapler,0.550240867946,right,1,correct,arm2,1,arm21,lion
227,19,rose,0.083576153309,right,1,correct,arm2,2,arm22,lion
228,19,lion,0.383590853802,left,1,correct,arm2,3,arm23,lion
229,20,lion,2.36690411858,space,1,correct,target,NaN,targetNaN,lion
230,20,coffeepot,1.15022649949,right,1,correct,path,1,path1,lion
231,20,mosquito,0.113403088792,left,1,correct,path,2,path2,lion
232,20,canoe,0.466913747878,right,1,correct,path,3,path3,lion
233,20,goose,2.71695729095,left,1,correct,decision,1,decision1,lion
234,20,sailor,1.78376762212,left,1,correct,arm1,1,arm11,lion
235,20,cooker,0.466915257159,right,1,correct,arm1,2,arm12,lion
236,20,tooth,0.483740847281,left,1,correct,arm1,3,arm13,lion
237,20,crutches,1.63354082078,left,1,correct,decision,2,decision2,lion
238,20,stapler,0.433640192568,right,1,correct,arm2,1,arm21,lion
239,20,rose,0.0835894350748,right,1,correct,arm2,2,arm22,lion
240,20,lion,0.216877751256,left,1,correct,arm2,3,arm23,lion
