pic_index,trial_num,pic_name,rt,resp,feedback_code,feedback,segment,segment_index,pic_type,trial_target
1,1,arc,1.21693812295,space,-1,miss,target,NaN,targetNaN,arc
2,1,trophy,6.06682995196,left,-1,miss,path,1,path1,arc
3,1,astronaut,3.38354165088,right,-1,miss,path,2,path2,arc
4,1,robot,3.68352043023,right,-1,miss,path,3,path3,arc
5,1,watch,12.7334242732,right,-1,miss,decision,1,decision1,arc
6,1,clover,5.21682764274,left,-1,miss,arm1,1,arm11,arc
7,1,radio,22.5998654919,right,-1,miss,arm1,2,arm12,arc
8,1,wing,7.98352969729,left,-1,miss,arm1,3,arm13,arc
9,1,stepladder,6.10021096887,right,-1,miss,decision,2,decision2,arc
10,1,calc,2.85021904358,right,-1,miss,arm2,1,arm21,arc
11,1,tongue,3.83369893424,right,-1,miss,arm2,2,arm22,arc
12,1,beaver,1.81689900208,right,-1,miss,arm2,3,arm23,arc
13,2,beaver,3.38329774924,space,0,wrong,target,NaN,targetNaN,beaver
14,2,trophy,5.75013636456,left,0,wrong,path,1,path1,beaver
15,2,astronaut,6.86681914542,right,0,wrong,path,2,path2,beaver
16,2,robot,1.68369641372,right,0,wrong,path,3,path3,beaver
17,2,watch,1.13361281401,right,0,wrong,decision,1,decision1,beaver
18,2,clover,4.11698795977,left,0,wrong,arm1,1,arm11,beaver
19,2,radio,3.13363243482,right,0,wrong,arm1,2,arm12,beaver
20,2,wing,5.25015794743,left,0,wrong,arm1,3,arm13,beaver
21,2,stepladder,4.7168480182,left,0,wrong,decision,2,decision2,beaver
22,2,calc,1.88357862853,right,0,wrong,arm2,1,arm21,beaver
23,2,tongue,0.983587050388,right,0,wrong,arm2,2,arm22,beaver
24,2,beaver,1.68377308575,right,0,wrong,arm2,3,arm23,beaver
25,3,arc,1.20041529686,space,1,correct,target,NaN,targetNaN,arc
26,3,trophy,3.10051403476,left,1,correct,path,1,path1,arc
27,3,astronaut,6.20017109337,right,1,correct,path,2,path2,arc
28,3,robot,1.23389653077,right,1,correct,path,3,path3,arc
29,3,watch,1.36691407992,left,1,correct,decision,1,decision1,arc
30,3,clover,2.08355683436,left,1,correct,arm1,1,arm11,arc
31,3,radio,0.850280018989,right,1,correct,arm1,2,arm12,arc
32,3,wing,4.08352906338,left,1,correct,arm1,3,arm13,arc
33,3,holly,1.95044329422,left,1,correct,decision,2,decision2,arc
34,3,match,6.05030199428,right,1,correct,arm2,1,arm21,arc
35,3,baby,2.80053133125,right,1,correct,arm2,2,arm22,arc
36,3,arc,1.48370824655,left,1,correct,arm2,3,arm23,arc
37,4,arc,0.633643150781,space,1,correct,target,NaN,targetNaN,arc
38,4,trophy,1.18368962189,left,1,correct,path,1,path1,arc
39,4,astronaut,1.05024765978,right,1,correct,path,2,path2,arc
40,4,robot,1.10046845413,right,1,correct,path,3,path3,arc
41,4,watch,1.21701419128,right,1,correct,decision,1,decision1,arc
42,4,clover,1.16700137738,left,1,correct,arm1,1,arm11,arc
43,4,radio,1.91719056717,right,1,correct,arm1,2,arm12,arc
44,4,wing,1.26703394789,left,1,correct,arm1,3,arm13,arc
45,4,holly,1.35029284797,right,1,correct,decision,2,decision2,arc
46,4,match,1.91689353845,right,1,correct,arm2,1,arm21,arc
47,4,baby,0.683575972187,right,1,correct,arm2,2,arm22,arc
48,4,arc,1.01691041233,left,1,correct,arm2,3,arm23,arc
49,5,arc,1.00028706739,space,1,correct,target,NaN,targetNaN,arc
50,5,trophy,1.03366023597,left,1,correct,path,1,path1,arc
51,5,astronaut,2.23355543072,right,1,correct,path,2,path2,arc
52,5,robot,2.73354863891,right,1,correct,path,3,path3,arc
53,5,watch,1.18371316684,left,1,correct,decision,1,decision1,arc
54,5,clover,6.36684404875,left,1,correct,arm1,1,arm11,arc
55,5,radio,0.766963765825,right,1,correct,arm1,2,arm12,arc
56,5,wing,0.666915498645,left,1,correct,arm1,3,arm13,arc
57,5,holly,1.0171766515,right,1,correct,decision,2,decision2,arc
58,5,match,2.3335686823,right,1,correct,arm2,1,arm21,arc
59,5,baby,0.600285980705,right,1,correct,arm2,2,arm22,arc
60,5,arc,4.18360147922,left,1,correct,arm2,3,arm23,arc
61,6,arc,0.500239222834,space,1,correct,target,NaN,targetNaN,arc
62,6,trophy,6.33347963406,left,1,correct,path,1,path1,arc
63,6,astronaut,1.05038923139,right,1,correct,path,2,path2,arc
64,6,robot,1.0836256581,right,1,correct,path,3,path3,arc
65,6,watch,1.11693785127,left,1,correct,decision,1,decision1,arc
66,6,clover,1.98360576562,left,1,correct,arm1,1,arm11,arc
67,6,radio,1.55023060477,right,1,correct,arm1,2,arm12,arc
68,6,wing,0.683636645728,left,1,correct,arm1,3,arm13,arc
69,6,holly,0.766916374036,right,1,correct,decision,2,decision2,arc
70,6,match,0.900257213594,right,1,correct,arm2,1,arm21,arc
71,6,baby,2.36722559785,right,1,correct,arm2,2,arm22,arc
72,6,arc,1.43357046327,left,1,correct,arm2,3,arm23,arc
73,7,arc,1.91692644102,space,1,correct,target,NaN,targetNaN,arc
74,7,trophy,3.76703138211,left,1,correct,path,1,path1,arc
75,7,astronaut,0.616911740508,right,1,correct,path,2,path2,arc
76,7,robot,0.850238060666,right,1,correct,path,3,path3,arc
77,7,watch,0.683741692483,right,1,correct,decision,1,decision1,arc
78,7,clover,1.08360543357,left,1,correct,arm1,1,arm11,arc
79,7,radio,0.816895379787,right,1,correct,arm1,2,arm12,arc
80,7,wing,0.533583412995,left,1,correct,arm1,3,arm13,arc
81,7,holly,0.567313076419,right,1,correct,decision,2,decision2,arc
82,7,match,0.766932070677,right,1,correct,arm2,1,arm21,arc
83,7,baby,0.450733229271,right,1,correct,arm2,2,arm22,arc
84,7,arc,0.716887561648,left,1,correct,arm2,3,arm23,arc
85,8,beaver,3.43354993689,space,-1,miss,target,NaN,targetNaN,beaver
86,8,trophy,6.13345524389,left,-1,miss,path,1,path1,beaver
87,8,astronaut,0.50022895963,right,-1,miss,path,2,path2,beaver
88,8,robot,1.2169239356,right,-1,miss,path,3,path3,beaver
89,8,watch,2.51696852008,right,-1,miss,decision,1,decision1,beaver
90,8,clover,1.61687944166,left,-1,miss,arm1,1,arm11,beaver
91,8,radio,0.50035755134,right,-1,miss,arm1,2,arm12,beaver
92,8,wing,0.450235766548,left,-1,miss,arm1,3,arm13,beaver
93,8,holly,0.750274615726,left,-1,miss,decision,2,decision2,beaver
94,8,match,0.75025861722,right,-1,miss,arm2,1,arm21,beaver
95,8,baby,0.966898504019,right,-1,miss,arm2,2,arm22,beaver
96,8,arc,0.933595970302,left,-1,miss,arm2,3,arm23,beaver
97,9,arc,2.61693679477,space,1,correct,target,NaN,targetNaN,arc
98,9,trophy,1.40045538367,left,1,correct,path,1,path1,arc
99,9,astronaut,0.733573995021,right,1,correct,path,2,path2,arc
100,9,robot,1.38357062929,right,1,correct,path,3,path3,arc
101,9,watch,0.65033230088,right,1,correct,decision,1,decision1,arc
102,9,clover,1.60024432423,left,1,correct,arm1,1,arm11,arc
103,9,radio,0.516913883708,right,1,correct,arm1,2,arm12,arc
104,9,wing,0.450253878051,left,1,correct,arm1,3,arm13,arc
105,9,holly,0.7009871677,left,1,correct,decision,2,decision2,arc
106,9,match,2.35023398558,right,1,correct,arm2,1,arm21,arc
107,9,baby,0.383686241083,right,1,correct,arm2,2,arm22,arc
108,9,arc,0.950256443844,left,1,correct,arm2,3,arm23,arc
109,10,arc,6.05035029164,space,1,correct,target,NaN,targetNaN,arc
110,10,trophy,1.70023191784,left,1,correct,path,1,path1,arc
111,10,astronaut,0.350252398945,right,1,correct,path,2,path2,arc
112,10,robot,0.550212191403,right,1,correct,path,3,path3,arc
113,10,watch,0.617008335219,right,1,correct,decision,1,decision1,arc
114,10,clover,1.31693084816,left,1,correct,arm1,1,arm11,arc
115,10,radio,0.683671359468,right,1,correct,arm1,2,arm12,arc
116,10,wing,0.650284003525,left,1,correct,arm1,3,arm13,arc
117,10,holly,0.967025586433,left,1,correct,decision,2,decision2,arc
118,10,match,0.750437921146,right,1,correct,arm2,1,arm21,arc
119,10,baby,0.217365856355,right,1,correct,arm2,2,arm22,arc
120,10,arc,0.800267808809,left,1,correct,arm2,3,arm23,arc
121,11,beaver,3.53355956617,space,-1,miss,target,NaN,targetNaN,beaver
122,11,trophy,1.43357287813,left,-1,miss,path,1,path1,beaver
123,11,astronaut,0.483667495675,right,-1,miss,path,2,path2,beaver
124,11,robot,0.950205127912,right,-1,miss,path,3,path3,beaver
125,11,watch,0.600393744171,right,-1,miss,decision,1,decision1,beaver
126,11,clover,1.53359790221,left,-1,miss,arm1,1,arm11,beaver
127,11,radio,0.416923271507,right,-1,miss,arm1,2,arm12,beaver
128,11,wing,0.566909189802,left,-1,miss,arm1,3,arm13,beaver
129,11,holly,0.650358260711,right,-1,miss,decision,2,decision2,beaver
130,11,match,0.716974496885,right,-1,miss,arm2,1,arm21,beaver
131,11,baby,0.266969953911,right,-1,miss,arm2,2,arm22,beaver
132,11,arc,0.66696349415,left,-1,miss,arm2,3,arm23,beaver
133,12,beaver,4.38355734752,space,-1,miss,target,NaN,targetNaN,beaver
134,12,trophy,1.51712397719,left,-1,miss,path,1,path1,beaver
135,12,astronaut,0.416913612033,right,-1,miss,path,2,path2,beaver
136,12,robot,0.750386001499,right,-1,miss,path,3,path3,beaver
137,12,watch,0.916960249175,left,-1,miss,decision,1,decision1,beaver
138,12,clover,2.2503100841,left,-1,miss,arm1,1,arm11,beaver
139,12,radio,0.60028477326,right,-1,miss,arm1,2,arm12,beaver
140,12,wing,1.15025396862,left,-1,miss,arm1,3,arm13,beaver
141,12,holly,0.633661564148,left,-1,miss,decision,2,decision2,beaver
142,12,match,0.566931225476,right,-1,miss,arm2,1,arm21,beaver
143,12,baby,0.216913974262,right,-1,miss,arm2,2,arm22,beaver
144,12,arc,0.666890142544,left,-1,miss,arm2,3,arm23,beaver
145,13,arc,0.800094240214,space,1,correct,target,NaN,targetNaN,arc
146,13,trophy,1.50023831724,left,1,correct,path,1,path1,arc
147,13,astronaut,0.400254044085,right,1,correct,path,2,path2,arc
148,13,robot,0.800415417601,right,1,correct,path,3,path3,arc
149,13,watch,0.583591699004,left,1,correct,decision,1,decision1,arc
150,13,clover,0.60026183202,left,1,correct,arm1,1,arm11,arc
151,13,radio,0.267046927824,right,1,correct,arm1,2,arm12,arc
152,13,wing,0.300334066749,left,1,correct,arm1,3,arm13,arc
153,13,holly,0.600353295129,left,1,correct,decision,2,decision2,arc
154,13,match,0.800281694304,right,1,correct,arm2,1,arm21,arc
155,13,baby,0.166926214617,right,1,correct,arm2,2,arm22,arc
156,13,arc,0.583674106369,left,1,correct,arm2,3,arm23,arc
157,14,beaver,1.16698386958,space,-1,miss,target,NaN,targetNaN,beaver
158,14,trophy,3.56701514212,left,-1,miss,path,1,path1,beaver
159,14,astronaut,0.483583579029,right,-1,miss,path,2,path2,beaver
160,14,robot,1.03354341675,right,-1,miss,path,3,path3,beaver
161,14,pigeon,0.700332436711,left,-1,miss,decision,1,decision1,beaver
162,14,bus,6.16693708154,left,-1,miss,arm1,1,arm11,beaver
163,14,deer,2.46690922001,left,-1,miss,arm1,2,arm12,beaver
164,14,fist,1.31689613442,left,-1,miss,arm1,3,arm13,beaver
165,14,holly,2.10025805878,right,-1,miss,decision,2,decision2,beaver
166,14,match,1.66691157449,right,-1,miss,arm2,1,arm21,beaver
167,14,baby,0.316898247445,right,-1,miss,arm2,2,arm22,beaver
168,14,arc,1.11700788242,left,-1,miss,arm2,3,arm23,beaver
169,15,beaver,1.03352017365,space,1,correct,target,NaN,targetNaN,beaver
170,15,trophy,0.68357023687,left,1,correct,path,1,path1,beaver
171,15,astronaut,0.383583609204,right,1,correct,path,2,path2,beaver
172,15,robot,0.750256806088,right,1,correct,path,3,path3,beaver
173,15,pigeon,0.633679071951,left,1,correct,decision,1,decision1,beaver
174,15,bus,0.884003041516,left,1,correct,arm1,1,arm11,beaver
175,15,deer,1.23359376674,left,1,correct,arm1,2,arm12,beaver
176,15,fist,0.850239871826,left,1,correct,arm1,3,arm13,beaver
177,15,stepladder,2.01695297437,left,1,correct,decision,2,decision2,beaver
178,15,calc,1.70021169333,right,1,correct,arm2,1,arm21,beaver
179,15,tongue,1.6002503614,right,1,correct,arm2,2,arm22,beaver
180,15,beaver,3.51688913132,right,1,correct,arm2,3,arm23,beaver
181,16,beaver,1.75036064538,space,-1,miss,target,NaN,targetNaN,beaver
182,16,trophy,0.966905748617,left,-1,miss,path,1,path1,beaver
183,16,astronaut,0.333572002739,right,-1,miss,path,2,path2,beaver
184,16,robot,0.500257938038,right,-1,miss,path,3,path3,beaver
185,16,pigeon,0.616900873603,left,-1,miss,decision,1,decision1,beaver
186,16,bus,1.20023055948,left,-1,miss,arm1,1,arm11,beaver
187,16,deer,0.650277362642,left,-1,miss,arm1,2,arm12,beaver
188,16,fist,0.450253274335,left,-1,miss,arm1,3,arm13,beaver
189,16,holly,0.100295187382,right,-1,miss,decision,2,decision2,beaver
190,16,match,2.88411291799,right,-1,miss,arm2,1,arm21,beaver
191,16,baby,0.400250119914,right,-1,miss,arm2,2,arm22,beaver
192,16,arc,0.950788620306,left,-1,miss,arm2,3,arm23,beaver
193,17,beaver,0.600234966623,space,-1,miss,target,NaN,targetNaN,beaver
194,17,trophy,0.833587850328,left,-1,miss,path,1,path1,beaver
195,17,astronaut,0.500319819039,right,-1,miss,path,2,path2,beaver
196,17,robot,1.10060429043,right,-1,miss,path,3,path3,beaver
197,17,pigeon,2.65028189051,right,-1,miss,decision,1,decision1,beaver
198,17,bus,2.68333448542,left,-1,miss,arm1,1,arm11,beaver
199,17,deer,1.3335490615,left,-1,miss,arm1,2,arm12,beaver
200,17,fist,1.40006055281,left,-1,miss,arm1,3,arm13,beaver
201,17,holly,1.70049785514,right,-1,miss,decision,2,decision2,beaver
202,17,match,1.8833449901,right,-1,miss,arm2,1,arm21,beaver
203,17,baby,0.483584484595,right,-1,miss,arm2,2,arm22,beaver
204,17,arc,0.667087859823,left,-1,miss,arm2,3,arm23,beaver
205,18,beaver,0.500314989302,space,1,correct,target,NaN,targetNaN,beaver
206,18,trophy,0.600280849103,left,1,correct,path,1,path1,beaver
207,18,astronaut,0.417101669838,right,1,correct,path,2,path2,beaver
208,18,robot,0.867841238156,right,1,correct,path,3,path3,beaver
209,18,pigeon,1.16694643915,left,1,correct,decision,1,decision1,beaver
210,18,bus,1.65025140281,left,1,correct,arm1,1,arm11,beaver
211,18,deer,1.26690113019,left,1,correct,arm1,2,arm12,beaver
212,18,fist,1.73357490059,left,1,correct,arm1,3,arm13,beaver
213,18,stepladder,1.90040391679,left,1,correct,decision,2,decision2,beaver
214,18,calc,1.1836540026,right,1,correct,arm2,1,arm21,beaver
215,18,tongue,1.75021786633,right,1,correct,arm2,2,arm22,beaver
216,18,beaver,3.58358385069,right,1,correct,arm2,3,arm23,beaver
217,19,beaver,1.33360792389,space,1,correct,target,NaN,targetNaN,beaver
218,19,trophy,0.800301918818,left,1,correct,path,1,path1,beaver
219,19,astronaut,0.300205776904,right,1,correct,path,2,path2,beaver
220,19,robot,1.05023920773,right,1,correct,path,3,path3,beaver
221,19,pigeon,1.01698376394,right,1,correct,decision,1,decision1,beaver
222,19,bus,2.75021877191,left,1,correct,arm1,1,arm11,beaver
223,19,deer,1.05025460251,left,1,correct,arm1,2,arm12,beaver
224,19,fist,1.08357434215,left,1,correct,arm1,3,arm13,beaver
225,19,stepladder,1.20027734755,right,1,correct,decision,2,decision2,beaver
226,19,calc,12.900083645,right,1,correct,arm2,1,arm21,beaver
227,19,tongue,0.750266163683,right,1,correct,arm2,2,arm22,beaver
228,19,beaver,2.40019608726,right,1,correct,arm2,3,arm23,beaver
229,20,beaver,0.583811753822,space,1,correct,target,NaN,targetNaN,beaver
230,20,trophy,1.21691699285,left,1,correct,path,1,path1,beaver
231,20,astronaut,0.366917098494,right,1,correct,path,2,path2,beaver
232,20,robot,0.81693763996,right,1,correct,path,3,path3,beaver
233,20,pigeon,0.816976277842,right,1,correct,decision,1,decision1,beaver
234,20,bus,0.966943179068,left,1,correct,arm1,1,arm11,beaver
235,20,deer,0.433553257331,left,1,correct,arm1,2,arm12,beaver
236,20,fist,0.583603471488,left,1,correct,arm1,3,arm13,beaver
237,20,stepladder,1.0835791719,right,1,correct,decision,2,decision2,beaver
238,20,calc,1.5502318122,right,1,correct,arm2,1,arm21,beaver
239,20,tongue,0.750257409803,right,1,correct,arm2,2,arm22,beaver
240,20,beaver,3.01667315159,right,1,correct,arm2,3,arm23,beaver
241,21,beaver,0.466946046727,space,1,correct,target,NaN,targetNaN,beaver
242,21,trophy,0.583605584499,left,1,correct,path,1,path1,beaver
243,21,astronaut,0.267511487968,right,1,correct,path,2,path2,beaver
244,21,robot,0.533669442666,right,1,correct,path,3,path3,beaver
245,21,pigeon,0.583617356984,right,1,correct,decision,1,decision1,beaver
246,21,bus,1.25050417909,left,1,correct,arm1,1,arm11,beaver
247,21,deer,0.516991763187,left,1,correct,arm1,2,arm12,beaver
248,21,fist,0.216900994361,left,1,correct,arm1,3,arm13,beaver
249,21,stepladder,0.900289210578,right,1,correct,decision,2,decision2,beaver
250,21,calc,1.05033700986,right,1,correct,arm2,1,arm21,beaver
251,21,tongue,0.400310793455,right,1,correct,arm2,2,arm22,beaver
252,21,beaver,0.983656175988,right,1,correct,arm2,3,arm23,beaver
253,22,beaver,0.48363097079,space,1,correct,target,NaN,targetNaN,beaver
254,22,trophy,0.666963192285,left,1,correct,path,1,path1,beaver
255,22,astronaut,0.233644177119,right,1,correct,path,2,path2,beaver
256,22,robot,0.417055183643,right,1,correct,path,3,path3,beaver
257,22,pigeon,0.800302220683,right,1,correct,decision,1,decision1,beaver
258,22,bus,0.866929625627,left,1,correct,arm1,1,arm11,beaver
259,22,deer,1.01693516473,left,1,correct,arm1,2,arm12,beaver
260,22,fist,0.366931587705,left,1,correct,arm1,3,arm13,beaver
261,22,stepladder,0.733807331591,left,1,correct,decision,2,decision2,beaver
262,22,calc,1.38438474154,right,1,correct,arm2,1,arm21,beaver
263,22,tongue,0.400278494606,right,1,correct,arm2,2,arm22,beaver
264,22,beaver,0.28359873232,right,1,correct,arm2,3,arm23,beaver
265,23,beaver,0.483581164153,space,1,correct,target,NaN,targetNaN,beaver
266,23,trophy,0.550390891614,left,1,correct,path,1,path1,beaver
267,23,astronaut,0.350271717893,right,1,correct,path,2,path2,beaver
268,23,robot,0.383581798058,right,1,correct,path,3,path3,beaver
269,23,pigeon,0.617015881682,right,1,correct,decision,1,decision1,beaver
270,23,bus,1.93350480906,left,1,correct,arm1,1,arm11,beaver
271,23,deer,0.616913551654,left,1,correct,arm1,2,arm12,beaver
272,23,fist,0.183680566144,left,1,correct,arm1,3,arm13,beaver
273,23,stepladder,0.600385895843,right,1,correct,decision,2,decision2,beaver
274,23,calc,0.850360011478,right,1,correct,arm2,1,arm21,beaver
275,23,tongue,0.117117758913,right,1,correct,arm2,2,arm22,beaver
276,23,beaver,0.133610399134,right,1,correct,arm2,3,arm23,beaver
277,24,arc,2.98357044818,space,-1,miss,target,NaN,targetNaN,arc
278,24,trophy,0.63357100662,left,-1,miss,path,1,path1,arc
279,24,astronaut,0.216895560894,right,-1,miss,path,2,path2,arc
280,24,robot,0.483630065224,right,-1,miss,path,3,path3,arc
281,24,watch,0.666965003446,right,-1,miss,decision,1,decision1,arc
282,24,clover,0.866913928985,left,-1,miss,arm1,1,arm11,arc
283,24,radio,1.56689892663,right,-1,miss,arm1,2,arm12,arc
284,24,wing,0.600225910865,left,-1,miss,arm1,3,arm13,arc
285,24,stepladder,1.46698347718,right,-1,miss,decision,2,decision2,arc
286,24,calc,0.966718294527,right,-1,miss,arm2,1,arm21,arc
287,24,tongue,1.76697584015,right,-1,miss,arm2,2,arm22,arc
288,24,beaver,0.583584454405,right,-1,miss,arm2,3,arm23,arc
289,25,arc,0.600289602997,space,1,correct,target,NaN,targetNaN,arc
290,25,trophy,1.08360573543,left,1,correct,path,1,path1,arc
291,25,astronaut,0.250221941416,right,1,correct,path,2,path2,arc
292,25,robot,0.283583035678,right,1,correct,path,3,path3,arc
293,25,watch,0.667088463539,right,1,correct,decision,1,decision1,arc
294,25,clover,1.58383952481,left,1,correct,arm1,1,arm11,arc
295,25,radio,0.483598973806,right,1,correct,arm1,2,arm12,arc
296,25,wing,0.666912781919,left,1,correct,arm1,3,arm13,arc
297,25,holly,0.800317615474,right,1,correct,decision,2,decision2,arc
298,25,match,0.717820907987,right,1,correct,arm2,1,arm21,arc
299,25,baby,0.600329750174,right,1,correct,arm2,2,arm22,arc
300,25,arc,1.06689907754,left,1,correct,arm2,3,arm23,arc
301,26,beaver,0.366905024173,space,1,correct,target,NaN,targetNaN,beaver
302,26,trophy,0.616932568752,left,1,correct,path,1,path1,beaver
303,26,astronaut,0.283752076401,right,1,correct,path,2,path2,beaver
304,26,robot,0.350451021804,right,1,correct,path,3,path3,beaver
305,26,pigeon,1.53359880779,right,1,correct,decision,1,decision1,beaver
306,26,bus,1.28367751738,left,1,correct,arm1,1,arm11,beaver
307,26,deer,0.416920252916,left,1,correct,arm1,2,arm12,beaver
308,26,fist,0.116998222962,left,1,correct,arm1,3,arm13,beaver
309,26,stepladder,3.13366352624,left,1,correct,decision,2,decision2,beaver
310,26,calc,0.70027206502,right,1,correct,arm2,1,arm21,beaver
311,26,tongue,0.0668948515231,right,1,correct,arm2,2,arm22,beaver
312,26,beaver,0.0500451127446,right,1,correct,arm2,3,arm23,beaver
313,27,beaver,2.31695288382,space,1,correct,target,NaN,targetNaN,beaver
314,27,trophy,0.68374591849,left,1,correct,path,1,path1,beaver
315,27,astronaut,0.30031142736,right,1,correct,path,2,path2,beaver
316,27,robot,0.383583005489,right,1,correct,path,3,path3,beaver
317,27,pigeon,1.15031373658,left,1,correct,decision,1,decision1,beaver
318,27,bus,2.00020888605,left,1,correct,arm1,1,arm11,beaver
319,27,deer,0.267061718885,left,1,correct,arm1,2,arm12,beaver
320,27,fist,0.0670056335803,left,1,correct,arm1,3,arm13,beaver
321,27,stepladder,1.53358099812,right,1,correct,decision,2,decision2,beaver
322,27,calc,0.500236506094,right,1,correct,arm2,1,arm21,beaver
323,27,tongue,0.0169351647346,right,1,correct,arm2,2,arm22,beaver
324,27,beaver,0.0502286426781,right,1,correct,arm2,3,arm23,beaver
325,28,arc,0.566981333977,space,1,correct,target,NaN,targetNaN,arc
326,28,trophy,0.550046772973,left,1,correct,path,1,path1,arc
327,28,astronaut,0.36745742512,right,1,correct,path,2,path2,arc
328,28,robot,0.316922094265,right,1,correct,path,3,path3,arc
329,28,watch,1.15039704953,left,1,correct,decision,1,decision1,arc
330,28,clover,1.73354471475,left,1,correct,arm1,1,arm11,arc
331,28,radio,0.516955238316,right,1,correct,arm1,2,arm12,arc
332,28,wing,1.31691152921,left,1,correct,arm1,3,arm13,arc
333,28,holly,1.45041507046,right,1,correct,decision,2,decision2,arc
334,28,match,0.650466326028,right,1,correct,arm2,1,arm21,arc
335,28,baby,0.783658953078,right,1,correct,arm2,2,arm22,arc
336,28,arc,1.01692339225,left,1,correct,arm2,3,arm23,arc
337,29,beaver,0.667014206367,space,1,correct,target,NaN,targetNaN,beaver
338,29,trophy,0.500255825042,left,1,correct,path,1,path1,beaver
339,29,astronaut,0.316900662307,right,1,correct,path,2,path2,beaver
340,29,robot,0.650248987949,right,1,correct,path,3,path3,beaver
341,29,pigeon,1.46693397239,left,1,correct,decision,1,decision1,beaver
342,29,bus,1.4335979324,left,1,correct,arm1,1,arm11,beaver
343,29,deer,0.366928569129,left,1,correct,arm1,2,arm12,beaver
344,29,fist,0.0503143704846,left,1,correct,arm1,3,arm13,beaver
345,29,stepladder,2.78359767581,right,1,correct,decision,2,decision2,beaver
346,29,calc,0.633581571659,right,1,correct,arm2,1,arm21,beaver
347,29,tongue,0.050224114806,right,1,correct,arm2,2,arm22,beaver
348,29,beaver,0.0335859787883,right,1,correct,arm2,3,arm23,beaver
349,30,arc,2.00001479106,space,-1,miss,target,NaN,targetNaN,arc
350,30,trophy,0.701117872406,left,-1,miss,path,1,path1,arc
351,30,astronaut,0.333637506046,right,-1,miss,path,2,path2,arc
352,30,robot,0.366914985483,right,-1,miss,path,3,path3,arc
353,30,watch,1.61690540149,right,-1,miss,decision,1,decision1,arc
354,30,clover,1.43363143869,left,-1,miss,arm1,1,arm11,arc
355,30,radio,0.500284803449,right,-1,miss,arm1,2,arm12,arc
356,30,wing,0.550256564587,left,-1,miss,arm1,3,arm13,arc
357,30,stepladder,5.53360967468,left,-1,miss,decision,2,decision2,arc
358,30,calc,0.650408369198,right,-1,miss,arm2,1,arm21,arc
359,30,tongue,0.533643482835,right,-1,miss,arm2,2,arm22,arc
360,30,beaver,0.866910910408,right,-1,miss,arm2,3,arm23,arc
361,31,arc,0.650272834755,space,-1,miss,target,NaN,targetNaN,arc
362,31,trophy,1.43355567219,left,-1,miss,path,1,path1,arc
363,31,astronaut,0.316999671879,right,-1,miss,path,2,path2,arc
364,31,robot,0.333684897807,right,-1,miss,path,3,path3,arc
365,31,pigeon,1.83366482423,right,-1,miss,decision,1,decision1,arc
366,31,bus,1.2169296709,left,-1,miss,arm1,1,arm11,arc
367,31,deer,0.766896753237,left,-1,miss,arm1,2,arm12,arc
368,31,fist,0.18358880117,left,-1,miss,arm1,3,arm13,arc
369,31,stepladder,1.93362706174,left,-1,miss,decision,2,decision2,arc
370,31,calc,0.516934108222,right,-1,miss,arm2,1,arm21,arc
371,31,tongue,0.0671118877653,right,-1,miss,arm2,2,arm22,arc
372,31,beaver,0.0669078314386,right,-1,miss,arm2,3,arm23,arc
373,32,arc,1.3502433432,space,0,wrong,target,NaN,targetNaN,arc
374,32,trophy,1.70003661544,left,0,wrong,path,1,path1,arc
375,32,astronaut,0.550385760012,right,0,wrong,path,2,path2,arc
376,32,robot,0.383592061247,right,0,wrong,path,3,path3,arc
377,32,pigeon,2.21695895118,right,0,wrong,decision,1,decision1,arc
378,32,bus,1.20023357807,left,0,wrong,arm1,1,arm11,arc
379,32,deer,0.200240218954,left,0,wrong,arm1,2,arm12,arc
380,32,fist,0.183759653068,left,0,wrong,arm1,3,arm13,arc
381,32,holly,1.48367443842,right,0,wrong,decision,2,decision2,arc
382,32,match,0.416913913898,right,0,wrong,arm2,1,arm21,arc
383,32,baby,0.0504447733256,right,0,wrong,arm2,2,arm22,arc
384,32,arc,1.00029129341,left,0,wrong,arm2,3,arm23,arc
385,33,beaver,1.20025229329,space,1,correct,target,NaN,targetNaN,beaver
386,33,trophy,0.567379787128,left,1,correct,path,1,path1,beaver
387,33,astronaut,0.316907605054,right,1,correct,path,2,path2,beaver
388,33,robot,0.250234317617,right,1,correct,path,3,path3,beaver
389,33,pigeon,1.46691857761,left,1,correct,decision,1,decision1,beaver
390,33,bus,1.2168490747,left,1,correct,arm1,1,arm11,beaver
391,33,deer,0.416905763719,left,1,correct,arm1,2,arm12,beaver
392,33,fist,0.166949759587,left,1,correct,arm1,3,arm13,beaver
393,33,stepladder,1.53363835123,left,1,correct,decision,2,decision2,beaver
394,33,calc,0.566954166716,right,1,correct,arm2,1,arm21,beaver
395,33,tongue,0.200280064266,right,1,correct,arm2,2,arm22,beaver
396,33,beaver,0.250252127269,right,1,correct,arm2,3,arm23,beaver
397,34,arc,1.38358119434,space,-1,miss,target,NaN,targetNaN,arc
398,34,trophy,0.800363497954,left,-1,miss,path,1,path1,arc
399,34,astronaut,0.383597796565,right,-1,miss,path,2,path2,arc
400,34,robot,0.150254572334,right,-1,miss,path,3,path3,arc
401,34,watch,2.01688686738,left,-1,miss,decision,1,decision1,arc
402,34,clover,1.23398165485,left,-1,miss,arm1,1,arm11,arc
403,34,radio,0.350402422599,right,-1,miss,arm1,2,arm12,arc
404,34,wing,0.38361017275,left,-1,miss,arm1,3,arm13,arc
405,34,stepladder,2.50110495287,right,-1,miss,decision,2,decision2,arc
406,34,calc,0.65039146514,right,-1,miss,arm2,1,arm21,arc
407,34,tongue,1.31692149054,right,-1,miss,arm2,2,arm22,arc
408,34,beaver,0.750258919084,right,-1,miss,arm2,3,arm23,arc
409,35,arc,1.03357571561,space,-1,miss,target,NaN,targetNaN,arc
410,35,trophy,0.533579488838,left,-1,miss,path,1,path1,arc
411,35,astronaut,0.233556638152,right,-1,miss,path,2,path2,arc
412,35,robot,0.26689690417,right,-1,miss,path,3,path3,arc
413,35,watch,1.10031933607,left,-1,miss,decision,1,decision1,arc
414,35,clover,1.21699909835,left,-1,miss,arm1,1,arm11,arc
415,35,radio,0.266919241694,right,-1,miss,arm1,2,arm12,arc
416,35,wing,0.333556909827,left,-1,miss,arm1,3,arm13,arc
417,35,stepladder,0.833662711215,left,-1,miss,decision,2,decision2,arc
418,35,calc,1.26692950488,right,-1,miss,arm2,1,arm21,arc
419,35,tongue,0.483587503171,right,-1,miss,arm2,2,arm22,arc
420,35,beaver,1.60030288476,right,-1,miss,arm2,3,arm23,arc
421,36,beaver,2.86692328661,space,1,correct,target,NaN,targetNaN,beaver
422,36,trophy,0.700291685818,left,1,correct,path,1,path1,beaver
423,36,astronaut,0.183559219033,right,1,correct,path,2,path2,beaver
424,36,robot,0.200244444975,right,1,correct,path,3,path3,beaver
425,36,pigeon,2.70027659291,right,1,correct,decision,1,decision1,beaver
426,36,bus,1.31691303851,left,1,correct,arm1,1,arm11,beaver
427,36,deer,0.183610534979,left,1,correct,arm1,2,arm12,beaver
428,36,fist,0.100229684089,left,1,correct,arm1,3,arm13,beaver
429,36,stepladder,1.46699434407,right,1,correct,decision,2,decision2,beaver
430,36,calc,0.45035862294,right,1,correct,arm2,1,arm21,beaver
431,36,tongue,0.0669186983578,right,1,correct,arm2,2,arm22,beaver
432,36,beaver,0.183634985515,right,1,correct,arm2,3,arm23,beaver
433,37,beaver,0.566950242559,space,1,correct,target,NaN,targetNaN,beaver
434,37,trophy,0.616912042373,left,1,correct,path,1,path1,beaver
435,37,astronaut,0.266911091516,right,1,correct,path,2,path2,beaver
436,37,robot,0.133565422235,right,1,correct,path,3,path3,beaver
437,37,pigeon,1.03361616464,right,1,correct,decision,1,decision1,beaver
438,37,bus,1.3836083616,left,1,correct,arm1,1,arm11,beaver
439,37,deer,0.0836836149247,left,1,correct,arm1,2,arm12,beaver
440,37,fist,0.150259703922,left,1,correct,arm1,3,arm13,beaver
441,37,stepladder,0.966915106241,left,1,correct,decision,2,decision2,beaver
442,37,calc,0.850219043583,right,1,correct,arm2,1,arm21,beaver
443,37,tongue,0.300362441456,right,1,correct,arm2,2,arm22,beaver
444,37,beaver,0.0667324516835,right,1,correct,arm2,3,arm23,beaver
445,38,arc,0.966955253403,space,1,correct,target,NaN,targetNaN,arc
446,38,trophy,0.63366669575,left,1,correct,path,1,path1,arc
447,38,astronaut,0.233601916931,right,1,correct,path,2,path2,arc
448,38,robot,0.20024414311,right,1,correct,path,3,path3,arc
449,38,watch,0.86700810882,right,1,correct,decision,1,decision1,arc
450,38,clover,1.18356767108,left,1,correct,arm1,1,arm11,arc
451,38,radio,0.26691018595,right,1,correct,arm1,2,arm12,arc
452,38,wing,0.266925580727,left,1,correct,arm1,3,arm13,arc
453,38,holly,0.850155049586,right,1,correct,decision,2,decision2,arc
454,38,match,0.716909597322,right,1,correct,arm2,1,arm21,arc
455,38,baby,0.483601690517,right,1,correct,arm2,2,arm22,arc
456,38,arc,2.70038496009,left,1,correct,arm2,3,arm23,arc
457,39,beaver,1.36690442044,space,1,correct,target,NaN,targetNaN,beaver
458,39,trophy,0.800264790232,left,1,correct,path,1,path1,beaver
459,39,astronaut,0.250341175517,right,1,correct,path,2,path2,beaver
460,39,robot,0.2168991832,right,1,correct,path,3,path3,beaver
461,39,pigeon,1.43361393089,right,1,correct,decision,1,decision1,beaver
462,39,bus,1.03357843233,left,1,correct,arm1,1,arm11,beaver
463,39,deer,0.0836271673761,left,1,correct,arm1,2,arm12,beaver
464,39,fist,0.0669054165774,left,1,correct,arm1,3,arm13,beaver
465,39,stepladder,1.60027420822,left,1,correct,decision,2,decision2,beaver
466,39,calc,0.666923648823,right,1,correct,arm2,1,arm21,beaver
467,39,tongue,0.0502328687144,right,1,correct,arm2,2,arm22,beaver
468,39,beaver,0.0502398114477,right,1,correct,arm2,3,arm23,beaver
469,40,arc,0.750239902016,space,1,correct,target,NaN,targetNaN,arc
470,40,trophy,0.400365127993,left,1,correct,path,1,path1,arc
471,40,astronaut,0.3004412265,right,1,correct,path,2,path2,arc
472,40,robot,0.36703784189,right,1,correct,path,3,path3,arc
473,40,watch,0.716930425551,left,1,correct,decision,1,decision1,arc
474,40,clover,1.13358625048,left,1,correct,arm1,1,arm11,arc
475,40,radio,0.350264171429,right,1,correct,arm1,2,arm12,arc
476,40,wing,0.216872921519,left,1,correct,arm1,3,arm13,arc
477,40,holly,1.5502746761,left,1,correct,decision,2,decision2,arc
478,40,match,0.750292727229,right,1,correct,arm2,1,arm21,arc
479,40,baby,0.0668993794097,right,1,correct,arm2,2,arm22,arc
480,40,arc,3.4002160099,left,1,correct,arm2,3,arm23,arc
481,41,beaver,0.567142526386,space,1,correct,target,NaN,targetNaN,beaver
482,41,trophy,0.666949306804,left,1,correct,path,1,path1,beaver
483,41,astronaut,0.283581526382,right,1,correct,path,2,path2,beaver
484,41,robot,0.0336484635045,right,1,correct,path,3,path3,beaver
485,41,pigeon,2.01691373279,right,1,correct,decision,1,decision1,beaver
486,41,bus,0.833664220496,left,1,correct,arm1,1,arm11,beaver
487,41,deer,0.116960792511,left,1,correct,arm1,2,arm12,beaver
488,41,fist,0.0835888313595,left,1,correct,arm1,3,arm13,beaver
489,41,stepladder,1.03362944641,left,1,correct,decision,2,decision2,beaver
490,41,calc,0.450257198492,right,1,correct,arm2,1,arm21,beaver
491,41,tongue,0.0502998812735,right,1,correct,arm2,2,arm22,beaver
492,41,beaver,0.0672133121989,right,1,correct,arm2,3,arm23,beaver
493,42,beaver,0.650275249631,space,1,correct,target,NaN,targetNaN,beaver
494,42,trophy,0.700250633061,left,1,correct,path,1,path1,beaver
495,42,astronaut,0.416920252916,right,1,correct,path,2,path2,beaver
496,42,robot,0.484432706842,right,1,correct,path,3,path3,beaver
497,42,pigeon,1.23364296967,right,1,correct,decision,1,decision1,beaver
498,42,bus,1.26691682683,left,1,correct,arm1,1,arm11,beaver
499,42,deer,0.166902065961,left,1,correct,arm1,2,arm12,beaver
500,42,fist,0.066905114727,left,1,correct,arm1,3,arm13,beaver
501,42,stepladder,0.917040845365,left,1,correct,decision,2,decision2,beaver
502,42,calc,0.366948491777,right,1,correct,arm2,1,arm21,beaver
503,42,tongue,0.0502268315322,right,1,correct,arm2,2,arm22,beaver
504,42,beaver,0.0335929215507,right,1,correct,arm2,3,arm23,beaver
505,43,arc,0.900264156327,space,1,correct,target,NaN,targetNaN,arc
506,43,trophy,1.25041271596,left,1,correct,path,1,path1,arc
507,43,astronaut,0.233574145939,right,1,correct,path,2,path2,arc
508,43,robot,0.233680098259,right,1,correct,path,3,path3,arc
509,43,watch,0.617276687379,right,1,correct,decision,1,decision1,arc
510,43,clover,1.31691213293,left,1,correct,arm1,1,arm11,arc
511,43,radio,0.483655119475,right,1,correct,arm1,2,arm12,arc
512,43,wing,0.300296334448,left,1,correct,arm1,3,arm13,arc
513,43,holly,0.633658243707,right,1,correct,decision,2,decision2,arc
514,43,match,0.550235736358,right,1,correct,arm2,1,arm21,arc
515,43,baby,0.316914245937,right,1,correct,arm2,2,arm22,arc
516,43,arc,1.91704748626,left,1,correct,arm2,3,arm23,arc
517,44,arc,0.750254391198,space,1,correct,target,NaN,targetNaN,arc
518,44,trophy,0.668146779281,left,1,correct,path,1,path1,arc
519,44,astronaut,0.183693546045,right,1,correct,path,2,path2,arc
520,44,robot,0.150253364904,right,1,correct,path,3,path3,arc
521,44,watch,0.533628088044,right,1,correct,decision,1,decision1,arc
522,44,clover,1.03363397428,left,1,correct,arm1,1,arm11,arc
523,44,radio,0.233579881256,right,1,correct,arm1,2,arm12,arc
524,44,wing,0.283597223024,left,1,correct,arm1,3,arm13,arc
525,44,holly,1.50027393654,left,1,correct,decision,2,decision2,arc
526,44,match,0.58358385069,right,1,correct,arm2,1,arm21,arc
527,44,baby,0.383715823205,right,1,correct,arm2,2,arm22,arc
528,44,arc,0.500312876291,left,1,correct,arm2,3,arm23,arc
529,45,beaver,2.00024209048,space,1,correct,target,NaN,targetNaN,beaver
530,45,trophy,0.56690586936,left,1,correct,path,1,path1,beaver
531,45,astronaut,0.18358880117,right,1,correct,path,2,path2,beaver
532,45,robot,0.183618685158,right,1,correct,path,3,path3,beaver
533,45,pigeon,1.11677001798,left,1,correct,decision,1,decision1,beaver
534,45,bus,1.26692527886,left,1,correct,arm1,1,arm11,beaver
535,45,deer,0.0335618301178,left,1,correct,arm1,2,arm12,beaver
536,45,fist,0.0335717914422,left,1,correct,arm1,3,arm13,beaver
537,45,stepladder,4.71718006249,left,1,correct,decision,2,decision2,beaver
538,45,calc,1.01691161978,right,1,correct,arm2,1,arm21,beaver
539,45,tongue,0.233571429228,right,1,correct,arm2,2,arm22,beaver
540,45,beaver,0.0169019603054,right,1,correct,arm2,3,arm23,beaver
541,46,arc,0.967016530674,space,1,correct,target,NaN,targetNaN,arc
542,46,trophy,0.583578115387,left,1,correct,path,1,path1,arc
543,46,astronaut,0.134055942224,right,1,correct,path,2,path2,arc
544,46,robot,0.216906729664,right,1,correct,path,3,path3,arc
545,46,watch,2.58362731831,right,1,correct,decision,1,decision1,arc
546,46,clover,0.700198109713,left,1,correct,arm1,1,arm11,arc
547,46,radio,0.266934334621,right,1,correct,arm1,2,arm12,arc
548,46,wing,0.133582628157,left,1,correct,arm1,3,arm13,arc
549,46,holly,0.733623801658,left,1,correct,decision,2,decision2,arc
550,46,match,0.500248580443,right,1,correct,arm2,1,arm21,arc
551,46,baby,0.0503563288075,right,1,correct,arm2,2,arm22,arc
552,46,arc,1.017130769,left,1,correct,arm2,3,arm23,arc
553,47,arc,0.783708155999,space,1,correct,target,NaN,targetNaN,arc
554,47,trophy,0.833723384771,left,1,correct,path,1,path1,arc
555,47,astronaut,0.300341915063,right,1,correct,path,2,path2,arc
556,47,robot,0.516751483854,right,1,correct,path,3,path3,arc
557,47,watch,1.43361000673,right,1,correct,decision,1,decision1,arc
558,47,clover,1.06692382995,left,1,correct,arm1,1,arm11,arc
559,47,radio,0.200274328963,right,1,correct,arm1,2,arm12,arc
560,47,wing,0.266904752498,left,1,correct,arm1,3,arm13,arc
561,47,holly,1.61786682066,left,1,correct,decision,2,decision2,arc
562,47,match,0.616935285478,right,1,correct,arm2,1,arm21,arc
563,47,baby,0.0502485653415,right,1,correct,arm2,2,arm22,arc
564,47,arc,0.933385273107,left,1,correct,arm2,3,arm23,arc
565,48,beaver,0.53421520273,space,1,correct,target,NaN,targetNaN,beaver
566,48,trophy,0.71690506945,left,1,correct,path,1,path1,beaver
567,48,astronaut,0.300363347022,right,1,correct,path,2,path2,beaver
568,48,robot,1.01690588446,right,1,correct,path,3,path3,beaver
569,48,pigeon,1.21768220402,left,1,correct,decision,1,decision1,beaver
570,48,bus,0.816909868983,left,1,correct,arm1,1,arm11,beaver
571,48,deer,0.0502835809166,left,1,correct,arm1,2,arm12,beaver
572,48,fist,0.0336116367689,left,1,correct,arm1,3,arm13,beaver
573,48,stepladder,1.73372975398,right,1,correct,decision,2,decision2,beaver
574,48,calc,0.467716389481,right,1,correct,arm2,1,arm21,beaver
575,48,tongue,0.0336608396901,right,1,correct,arm2,2,arm22,beaver
576,48,beaver,0.0503004850034,right,1,correct,arm2,3,arm23,beaver
577,49,arc,0.667838883644,space,1,correct,target,NaN,targetNaN,arc
578,49,trophy,0.433583443184,left,1,correct,path,1,path1,arc
579,49,astronaut,0.133392155476,right,1,correct,path,2,path2,arc
580,49,robot,0.150576353437,right,1,correct,path,3,path3,arc
581,49,watch,6.86683604951,left,1,correct,decision,1,decision1,arc
582,49,clover,1.00024661837,left,1,correct,arm1,1,arm11,arc
583,49,radio,0.300273091343,right,1,correct,arm1,2,arm12,arc
584,49,wing,0.26704873897,left,1,correct,arm1,3,arm13,arc
585,49,holly,11.4834238959,left,1,correct,decision,2,decision2,arc
586,49,match,0.450250557609,right,1,correct,arm2,1,arm21,arc
587,49,baby,0.216997589057,right,1,correct,arm2,2,arm22,arc
588,49,arc,0.60015859644,left,1,correct,arm2,3,arm23,arc
589,50,arc,0.500259749198,space,1,correct,target,NaN,targetNaN,arc
590,50,trophy,0.483797596666,left,1,correct,path,1,path1,arc
591,50,astronaut,0.200300590644,right,1,correct,path,2,path2,arc
592,50,robot,0.216907333379,right,1,correct,path,3,path3,arc
593,50,watch,1.71702822768,right,1,correct,decision,1,decision1,arc
594,50,clover,1.68371241221,left,1,correct,arm1,1,arm11,arc
595,50,radio,0.266898715316,right,1,correct,arm1,2,arm12,arc
596,50,wing,0.250243373375,left,1,correct,arm1,3,arm13,arc
597,50,holly,0.833595094911,right,1,correct,decision,2,decision2,arc
598,50,match,0.633594249724,right,1,correct,arm2,1,arm21,arc
599,50,baby,0.350257832397,right,1,correct,arm2,2,arm22,arc
600,50,arc,0.683402101728,left,1,correct,arm2,3,arm23,arc
