pic_index,trial_num,pic_name,rt,resp,feedback_code,feedback,segment,segment_index,pic_type,trial_target
1,1,lion,6.71687277057,space,-1,miss,target,NaN,targetNaN,lion
2,1,coffeepot,4.5002138667,left,-1,miss,path,1,path1,lion
3,1,mosquito,0.766918788955,left,-1,miss,path,2,path2,lion
4,1,canoe,0.950227465422,right,-1,miss,path,3,path3,lion
5,1,domino,1.70033877576,right,-1,miss,decision,1,decision1,lion
6,1,ambulance,1.48359323852,right,-1,miss,arm1,1,arm11,lion
7,1,trunk,0.566910397261,left,-1,miss,arm1,2,arm12,lion
8,1,peach,0.833577285288,left,-1,miss,arm1,3,arm13,lion
9,1,garlic,0.933580575511,left,-1,miss,decision,2,decision2,lion
10,1,mug,2.85023353278,right,-1,miss,arm2,1,arm21,lion
11,1,branch,0.850251342461,left,-1,miss,arm2,2,arm22,lion
12,1,bolt,0.88357711921,right,-1,miss,arm2,3,arm23,lion
13,2,bolt,0.916894444032,space,0,wrong,target,NaN,targetNaN,bolt
14,2,coffeepot,1.48416375095,left,0,wrong,path,1,path1,bolt
15,2,mosquito,0.617021013284,left,0,wrong,path,2,path2,bolt
16,2,canoe,2.70023040858,right,0,wrong,path,3,path3,bolt
17,2,goose,1.56696231687,left,0,wrong,decision,1,decision1,bolt
18,2,sailor,2.06690088869,right,0,wrong,arm1,1,arm11,bolt
19,2,cooker,1.95023803046,right,0,wrong,arm1,2,arm12,bolt
20,2,tooth,0.71707924176,left,0,wrong,arm1,3,arm13,bolt
21,2,garlic,1.61696305644,right,0,wrong,decision,2,decision2,bolt
22,2,mug,2.41701533837,right,0,wrong,arm2,1,arm21,bolt
23,2,branch,0.583772814076,left,0,wrong,arm2,2,arm22,bolt
24,2,bolt,0.850251946133,right,0,wrong,arm2,3,arm23,bolt
25,3,lion,0.500282388588,space,-1,miss,target,NaN,targetNaN,lion
26,3,coffeepot,0.634461187234,left,-1,miss,path,1,path1,lion
27,3,mosquito,0.650436743861,left,-1,miss,path,2,path2,lion
28,3,canoe,1.46690106986,right,-1,miss,path,3,path3,lion
29,3,domino,1.0836392417,left,-1,miss,decision,1,decision1,lion
30,3,ambulance,0.866966150468,right,-1,miss,arm1,1,arm11,lion
31,3,trunk,1.06694043212,left,-1,miss,arm1,2,arm12,lion
32,3,peach,0.517154464906,left,-1,miss,arm1,3,arm13,lion
33,3,garlic,0.633636811748,right,-1,miss,decision,2,decision2,lion
34,3,mug,0.900256006164,right,-1,miss,arm2,1,arm21,lion
35,3,branch,0.65029245551,left,-1,miss,arm2,2,arm22,lion
36,3,bolt,0.866919060587,right,-1,miss,arm2,3,arm23,lion
37,4,lion,0.500279369997,space,-1,miss,target,NaN,targetNaN,lion
38,4,coffeepot,1.70022769179,left,-1,miss,path,1,path1,lion
39,4,mosquito,0.400246497651,left,-1,miss,path,2,path2,lion
40,4,canoe,0.28357216873,right,-1,miss,path,3,path3,lion
41,4,domino,0.933986575168,left,-1,miss,decision,1,decision1,lion
42,4,ambulance,1.30028607126,right,-1,miss,arm1,1,arm11,lion
43,4,trunk,0.833388019993,left,-1,miss,arm1,2,arm12,lion
44,4,peach,1.71690537129,left,-1,miss,arm1,3,arm13,lion
45,4,garlic,0.567101171764,right,-1,miss,decision,2,decision2,lion
46,4,mug,0.784039898426,right,-1,miss,arm2,1,arm21,lion
47,4,branch,0.533730719937,left,-1,miss,arm2,2,arm22,lion
48,4,bolt,0.583619168086,right,-1,miss,arm2,3,arm23,lion
49,5,lion,0.551044717024,space,-1,miss,target,NaN,targetNaN,lion
50,5,coffeepot,1.20025168959,left,-1,miss,path,1,path1,lion
51,5,mosquito,0.883571987681,left,-1,miss,path,2,path2,lion
52,5,canoe,0.114215389884,right,-1,miss,path,3,path3,lion
53,5,domino,2.51693803235,right,-1,miss,decision,1,decision1,lion
54,5,ambulance,2.66687142733,right,-1,miss,arm1,1,arm11,lion
55,5,trunk,1.16691957373,left,-1,miss,arm1,2,arm12,lion
56,5,peach,0.900239705807,left,-1,miss,arm1,3,arm13,lion
57,5,garlic,0.800298296497,right,-1,miss,decision,2,decision2,lion
58,5,mug,0.550237245683,right,-1,miss,arm2,1,arm21,lion
59,5,branch,0.400398332393,left,-1,miss,arm2,2,arm22,lion
60,5,bolt,1.4002292917,right,-1,miss,arm2,3,arm23,lion
61,6,bolt,0.550270450069,space,0,wrong,target,NaN,targetNaN,bolt
62,6,coffeepot,1.45023033308,left,0,wrong,path,1,path1,bolt
63,6,mosquito,1.25040124531,left,0,wrong,path,2,path2,bolt
64,6,canoe,0.114037897089,right,0,wrong,path,3,path3,bolt
65,6,goose,3.03368559212,left,0,wrong,decision,1,decision1,bolt
66,6,sailor,3.5835343459,right,0,wrong,arm1,1,arm11,bolt
67,6,cooker,0.883584363852,right,0,wrong,arm1,2,arm12,bolt
68,6,tooth,0.383590853831,left,0,wrong,arm1,3,arm13,bolt
69,6,garlic,0.816899907659,left,0,wrong,decision,2,decision2,bolt
70,6,mug,0.633595155319,right,0,wrong,arm2,1,arm21,bolt
71,6,branch,0.46691827575,left,0,wrong,arm2,2,arm22,bolt
72,6,bolt,0.900368599396,right,0,wrong,arm2,3,arm23,bolt
73,7,bolt,0.766934183717,space,0,wrong,target,NaN,targetNaN,bolt
74,7,coffeepot,1.7344955689,left,0,wrong,path,1,path1,bolt
75,7,mosquito,1.78360371303,left,0,wrong,path,2,path2,bolt
76,7,canoe,0.114112456155,right,0,wrong,path,3,path3,bolt
77,7,goose,2.71692801069,right,0,wrong,decision,1,decision1,bolt
78,7,sailor,1.21708210948,right,0,wrong,arm1,1,arm11,bolt
79,7,cooker,0.733582748857,right,0,wrong,arm1,2,arm12,bolt
80,7,tooth,0.517075679847,left,0,wrong,arm1,3,arm13,bolt
81,7,garlic,0.833715838264,right,0,wrong,decision,2,decision2,bolt
82,7,mug,0.65042376396,right,0,wrong,arm2,1,arm21,bolt
83,7,branch,1.51694678626,left,0,wrong,arm2,2,arm22,bolt
84,7,bolt,0.466917973885,right,0,wrong,arm2,3,arm23,bolt
85,8,bolt,0.583632148046,space,0,wrong,target,NaN,targetNaN,bolt
86,8,coffeepot,1.46689231595,left,0,wrong,path,1,path1,bolt
87,8,mosquito,1.88355961145,left,0,wrong,path,2,path2,bolt
88,8,canoe,0.114217201015,right,0,wrong,path,3,path3,bolt
89,8,goose,2.15027177829,right,0,wrong,decision,1,decision1,bolt
90,8,sailor,1.53360152448,right,0,wrong,arm1,1,arm11,bolt
91,8,cooker,0.733573995007,right,0,wrong,arm1,2,arm12,bolt
92,8,tooth,1.26702700515,left,0,wrong,arm1,3,arm13,bolt
93,8,garlic,0.800271129236,left,0,wrong,decision,2,decision2,bolt
94,8,mug,0.75024805218,right,0,wrong,arm2,1,arm21,bolt
95,8,branch,0.983584031812,left,0,wrong,arm2,2,arm22,bolt
96,8,bolt,0.667533101048,right,0,wrong,arm2,3,arm23,bolt
97,9,bolt,0.467079166265,space,-1,miss,target,NaN,targetNaN,bolt
98,9,coffeepot,2.88370963512,left,-1,miss,path,1,path1,bolt
99,9,mosquito,1.68360676174,left,-1,miss,path,2,path2,bolt
100,9,canoe,0.114190033753,right,-1,miss,path,3,path3,bolt
101,9,goose,0.033655104402,right,-1,miss,decision,1,decision1,bolt
102,9,sailor,3.80024939543,right,-1,miss,arm1,1,arm11,bolt
103,9,cooker,1.20026104723,right,-1,miss,arm1,2,arm12,bolt
104,9,tooth,0.366915589198,left,-1,miss,arm1,3,arm13,bolt
105,9,crutches,0.933644871344,right,-1,miss,decision,2,decision2,bolt
106,9,stapler,1.1836700011,right,-1,miss,arm2,1,arm21,bolt
107,9,rose,1.06705151603,left,-1,miss,arm2,2,arm22,bolt
108,9,lion,2.36689476098,left,-1,miss,arm2,3,arm23,bolt
109,10,bolt,0.66691761167,space,0,wrong,target,NaN,targetNaN,bolt
110,10,coffeepot,0.51746779395,left,0,wrong,path,1,path1,bolt
111,10,mosquito,0.583708518243,left,0,wrong,path,2,path2,bolt
112,10,canoe,0.114176450181,right,0,wrong,path,3,path3,bolt
113,10,goose,2.60030680889,left,0,wrong,decision,1,decision1,bolt
114,10,sailor,2.35021647782,right,0,wrong,arm1,1,arm11,bolt
115,10,cooker,2.13367590244,right,0,wrong,arm1,2,arm12,bolt
116,10,tooth,0.466930350056,left,0,wrong,arm1,3,arm13,bolt
117,10,garlic,1.45024150185,left,0,wrong,decision,2,decision2,bolt
118,10,mug,0.500431808527,right,0,wrong,arm2,1,arm21,bolt
119,10,branch,0.800249093561,left,0,wrong,arm2,2,arm22,bolt
120,10,bolt,0.733602973458,right,0,wrong,arm2,3,arm23,bolt
121,11,lion,0.816977787181,space,1,correct,target,NaN,targetNaN,lion
122,11,coffeepot,0.716914728924,left,1,correct,path,1,path1,lion
123,11,mosquito,0.433769689873,left,1,correct,path,2,path2,lion
124,11,canoe,0.350237607898,right,1,correct,path,3,path3,lion
125,11,goose,1.55041836068,right,1,correct,decision,1,decision1,lion
126,11,sailor,1.58362550713,right,1,correct,arm1,1,arm11,lion
127,11,cooker,2.11690494872,right,1,correct,arm1,2,arm12,lion
128,11,tooth,0.300248942629,left,1,correct,arm1,3,arm13,lion
129,11,crutches,0.916943345102,right,1,correct,decision,2,decision2,lion
130,11,stapler,4.71684741444,right,1,correct,arm2,1,arm21,lion
131,11,rose,0.666922441393,left,1,correct,arm2,2,arm22,lion
132,11,lion,1.10039872484,left,1,correct,arm2,3,arm23,lion
133,12,lion,0.250241260394,space,1,correct,target,NaN,targetNaN,lion
134,12,coffeepot,0.550246905128,left,1,correct,path,1,path1,lion
135,12,mosquito,1.05025580997,left,1,correct,path,2,path2,lion
136,12,canoe,0.114118493337,right,1,correct,path,3,path3,lion
137,12,goose,1.16697994544,right,1,correct,decision,1,decision1,lion
138,12,sailor,0.883579534129,right,1,correct,arm1,1,arm11,lion
139,12,cooker,1.0002541648,right,1,correct,arm1,2,arm12,lion
140,12,tooth,0.400350940647,left,1,correct,arm1,3,arm13,lion
141,12,crutches,0.966955253389,right,1,correct,decision,2,decision2,lion
142,12,stapler,0.683588952117,right,1,correct,arm2,1,arm21,lion
143,12,rose,0.900253289379,left,1,correct,arm2,2,arm22,lion
144,12,lion,0.416931723536,left,1,correct,arm2,3,arm23,lion
145,13,bolt,0.50025371206,space,1,correct,target,NaN,targetNaN,bolt
146,13,coffeepot,1.16691081988,left,1,correct,path,1,path1,bolt
147,13,mosquito,0.750257711625,left,1,correct,path,2,path2,bolt
148,13,canoe,0.114173129667,right,1,correct,path,3,path3,bolt
149,13,domino,1.15026604297,left,1,correct,decision,1,decision1,bolt
150,13,ambulance,1.03356877284,right,1,correct,arm1,1,arm11,bolt
151,13,trunk,1.80003356666,left,1,correct,arm1,2,arm12,bolt
152,13,peach,2.31688466383,left,1,correct,arm1,3,arm13,bolt
153,13,garlic,0.916972927225,left,1,correct,decision,2,decision2,bolt
154,13,mug,0.750374530908,right,1,correct,arm2,1,arm21,bolt
155,13,branch,0.483602294233,left,1,correct,arm2,2,arm22,bolt
156,13,bolt,0.700245199609,right,1,correct,arm2,3,arm23,bolt
157,14,bolt,0.416923875222,space,1,correct,target,NaN,targetNaN,bolt
158,14,coffeepot,0.600319486985,left,1,correct,path,1,path1,bolt
159,14,mosquito,2.36691860785,left,1,correct,path,2,path2,bolt
160,14,canoe,0.114077440579,right,1,correct,path,3,path3,bolt
161,14,domino,1.5002374117,right,1,correct,decision,1,decision1,bolt
162,14,ambulance,0.916933685599,right,1,correct,arm1,1,arm11,bolt
163,14,trunk,0.317214595096,left,1,correct,arm1,2,arm12,bolt
164,14,peach,0.78360401484,left,1,correct,arm1,3,arm13,bolt
165,14,garlic,1.20028912002,right,1,correct,decision,2,decision2,bolt
166,14,mug,0.683633023466,right,1,correct,arm2,1,arm21,bolt
167,14,branch,7.28348251677,left,1,correct,arm2,2,arm22,bolt
168,14,bolt,1.78356447135,right,1,correct,arm2,3,arm23,bolt
169,15,lion,0.266948823817,space,1,correct,target,NaN,targetNaN,lion
170,15,coffeepot,0.500388340908,left,1,correct,path,1,path1,lion
171,15,mosquito,0.800241547171,left,1,correct,path,2,path2,lion
172,15,canoe,0.114232897642,right,1,correct,path,3,path3,lion
173,15,goose,1.03362944641,left,1,correct,decision,1,decision1,lion
174,15,sailor,0.783657745691,right,1,correct,arm1,1,arm11,lion
175,15,cooker,0.75027220085,right,1,correct,arm1,2,arm12,lion
176,15,tooth,0.317552978406,left,1,correct,arm1,3,arm13,lion
177,15,crutches,1.15019208763,right,1,correct,decision,2,decision2,lion
178,15,stapler,0.616912042373,right,1,correct,arm2,1,arm21,lion
179,15,rose,1.33357170084,left,1,correct,arm2,2,arm22,lion
180,15,lion,0.916909235122,left,1,correct,arm2,3,arm23,lion
181,16,bolt,0.450262028258,space,0,wrong,target,NaN,targetNaN,bolt
182,16,coffeepot,1.63358972187,left,0,wrong,path,1,path1,bolt
183,16,mosquito,0.483565467526,left,0,wrong,path,2,path2,bolt
184,16,canoe,0.114176148258,right,0,wrong,path,3,path3,bolt
185,16,goose,0.0335956382914,right,0,wrong,decision,1,decision1,bolt
186,16,sailor,1.51759487635,right,0,wrong,arm1,1,arm11,bolt
187,16,cooker,1.23356931622,right,0,wrong,arm1,2,arm12,bolt
188,16,tooth,1.2335786738,left,0,wrong,arm1,3,arm13,bolt
189,16,garlic,1.11701120285,left,0,wrong,decision,2,decision2,bolt
190,16,mug,0.600385593949,right,0,wrong,arm2,1,arm21,bolt
191,16,branch,0.547731820494,left,0,wrong,arm2,2,arm22,bolt
192,16,bolt,1.36688268662,right,0,wrong,arm2,3,arm23,bolt
193,17,bolt,0.667045901471,space,0,wrong,target,NaN,targetNaN,bolt
194,17,coffeepot,0.733586371236,left,0,wrong,path,1,path1,bolt
195,17,mosquito,0.583566041023,left,0,wrong,path,2,path2,bolt
196,17,canoe,0.114247386926,right,0,wrong,path,3,path3,bolt
197,17,goose,0.0169581060181,left,0,wrong,decision,1,decision1,bolt
198,17,sailor,2.6168891011,right,0,wrong,arm1,1,arm11,bolt
199,17,cooker,2.66688440723,right,0,wrong,arm1,2,arm12,bolt
200,17,tooth,0.366897779575,left,0,wrong,arm1,3,arm13,bolt
201,17,garlic,1.41695375921,left,0,wrong,decision,2,decision2,bolt
202,17,mug,0.333662560326,right,0,wrong,arm2,1,arm21,bolt
203,17,branch,0.550281618838,left,0,wrong,arm2,2,arm22,bolt
204,17,bolt,0.650514019653,right,0,wrong,arm2,3,arm23,bolt
205,18,bolt,0.56696382619,space,1,correct,target,NaN,targetNaN,bolt
206,18,coffeepot,0.833386510727,left,1,correct,path,1,path1,bolt
207,18,mosquito,0.666946288198,left,1,correct,path,2,path2,bolt
208,18,canoe,1.08357615332,right,1,correct,path,3,path3,bolt
209,18,domino,1.41700447147,left,1,correct,decision,1,decision1,bolt
210,18,ambulance,0.816921641468,right,1,correct,arm1,1,arm11,bolt
211,18,trunk,0.53359850595,left,1,correct,arm1,2,arm12,bolt
212,18,peach,0.400221141463,left,1,correct,arm1,3,arm13,bolt
213,18,garlic,1.13364481099,left,1,correct,decision,2,decision2,bolt
214,18,mug,0.433804101718,right,1,correct,arm2,1,arm21,bolt
215,18,branch,0.216970421781,left,1,correct,arm2,2,arm22,bolt
216,18,bolt,0.983696624986,right,1,correct,arm2,3,arm23,bolt
217,19,bolt,0.766964369512,space,1,correct,target,NaN,targetNaN,bolt
218,19,coffeepot,0.700257877645,left,1,correct,path,1,path1,bolt
219,19,mosquito,1.00025476853,left,1,correct,path,2,path2,bolt
220,19,canoe,0.113479760883,right,1,correct,path,3,path3,bolt
221,19,domino,2.48370613356,left,1,correct,decision,1,decision1,bolt
222,19,ambulance,0.516941654671,right,1,correct,arm1,1,arm11,bolt
223,19,trunk,0.416931723594,left,1,correct,arm1,2,arm12,bolt
224,19,peach,0.466936990968,left,1,correct,arm1,3,arm13,bolt
225,19,garlic,1.70028927096,left,1,correct,decision,2,decision2,bolt
226,19,mug,1.58373206318,right,1,correct,arm2,1,arm21,bolt
227,19,branch,0.400244988326,left,1,correct,arm2,2,arm22,bolt
228,19,bolt,0.466904088389,right,1,correct,arm2,3,arm23,bolt
229,20,lion,0.333589510585,space,-1,miss,target,NaN,targetNaN,lion
230,20,coffeepot,0.517078698438,left,-1,miss,path,1,path1,lion
231,20,mosquito,0.750232053688,left,-1,miss,path,2,path2,lion
232,20,canoe,0.113673553977,right,-1,miss,path,3,path3,lion
233,20,goose,0.000340496306308,right,-1,miss,decision,1,decision1,lion
234,20,sailor,1.36690532602,right,-1,miss,arm1,1,arm11,lion
235,20,cooker,0.816896889068,right,-1,miss,arm1,2,arm12,lion
236,20,tooth,0.401198861015,left,-1,miss,arm1,3,arm13,lion
237,20,garlic,0.750322309381,left,-1,miss,decision,2,decision2,lion
238,20,mug,0.483575730701,right,-1,miss,arm2,1,arm21,lion
239,20,branch,0.183744258247,left,-1,miss,arm2,2,arm22,lion
240,20,bolt,0.733600558597,right,-1,miss,arm2,3,arm23,lion
241,21,lion,0.716954876087,space,1,correct,target,NaN,targetNaN,lion
242,21,coffeepot,1.06690571847,left,1,correct,path,1,path1,lion
243,21,mosquito,0.466964460094,left,1,correct,path,2,path2,lion
244,21,canoe,0.266920449154,right,1,correct,path,3,path3,lion
245,21,goose,0.300465978915,right,1,correct,decision,1,decision1,lion
246,21,sailor,0.683582914935,right,1,correct,arm1,1,arm11,lion
247,21,cooker,0.850309902977,right,1,correct,arm1,2,arm12,lion
248,21,tooth,0.450280743476,left,1,correct,arm1,3,arm13,lion
249,21,crutches,1.00032298849,right,1,correct,decision,2,decision2,lion
250,21,stapler,0.516941654671,right,1,correct,arm2,1,arm21,lion
251,21,rose,0.533556245733,left,1,correct,arm2,2,arm22,lion
252,21,lion,0.883659828454,left,1,correct,arm2,3,arm23,lion
253,22,bolt,0.416924780817,space,1,correct,target,NaN,targetNaN,bolt
254,22,coffeepot,0.666730761295,left,1,correct,path,1,path1,bolt
255,22,mosquito,0.283564622281,left,1,correct,path,2,path2,bolt
256,22,canoe,0.550252036715,right,1,correct,path,3,path3,bolt
257,22,domino,2.00034019444,left,1,correct,decision,1,decision1,bolt
258,22,ambulance,0.467128671124,right,1,correct,arm1,1,arm11,bolt
259,22,trunk,0.200250482128,left,1,correct,arm1,2,arm12,bolt
260,22,peach,0.500270616147,left,1,correct,arm1,3,arm13,bolt
261,22,garlic,8.65016446763,right,1,correct,decision,2,decision2,bolt
262,22,mug,1.28368959174,right,1,correct,arm2,1,arm21,bolt
263,22,branch,0.383598098415,left,1,correct,arm2,2,arm22,bolt
264,22,bolt,0.450246029708,right,1,correct,arm2,3,arm23,bolt
265,23,lion,0.700300741591,space,1,correct,target,NaN,targetNaN,lion
266,23,coffeepot,2.60038861254,left,1,correct,path,1,path1,lion
267,23,mosquito,0.400274570449,left,1,correct,path,2,path2,lion
268,23,canoe,0.200346171274,right,1,correct,path,3,path3,lion
269,23,goose,0.767001799948,left,1,correct,decision,1,decision1,lion
270,23,sailor,0.866923890309,right,1,correct,arm1,1,arm11,lion
271,23,cooker,0.417567437398,right,1,correct,arm1,2,arm12,lion
272,23,tooth,0.600728203368,left,1,correct,arm1,3,arm13,lion
273,23,crutches,1.66677392705,right,1,correct,decision,2,decision2,lion
274,23,stapler,0.550667997624,right,1,correct,arm2,1,arm21,lion
275,23,rose,0.283571866923,left,1,correct,arm2,2,arm22,lion
276,23,lion,0.700312514091,left,1,correct,arm2,3,arm23,lion
277,24,lion,0.633588514407,space,1,correct,target,NaN,targetNaN,lion
278,24,coffeepot,0.450278026692,left,1,correct,path,1,path1,lion
279,24,mosquito,0.350305224187,left,1,correct,path,2,path2,lion
280,24,canoe,0.283653670514,right,1,correct,path,3,path3,lion
281,24,goose,0.883636585379,left,1,correct,decision,1,decision1,lion
282,24,sailor,1.85025737958,right,1,correct,arm1,1,arm11,lion
283,24,cooker,0.233585314709,right,1,correct,arm1,2,arm12,lion
284,24,tooth,0.633586401411,left,1,correct,arm1,3,arm13,lion
285,24,crutches,0.900337809813,right,1,correct,decision,2,decision2,lion
286,24,stapler,0.3502517952,right,1,correct,arm2,1,arm21,lion
287,24,rose,0.45024210558,left,1,correct,arm2,2,arm22,lion
288,24,lion,1.01709696086,left,1,correct,arm2,3,arm23,lion
289,25,lion,0.600207195675,space,1,correct,target,NaN,targetNaN,lion
290,25,coffeepot,0.500319215294,left,1,correct,path,1,path1,lion
291,25,mosquito,0.816940054821,left,1,correct,path,2,path2,lion
292,25,canoe,0.616945246817,right,1,correct,path,3,path3,lion
293,25,goose,5.66705857957,right,1,correct,decision,1,decision1,lion
294,25,sailor,1.5166889992,right,1,correct,arm1,1,arm11,lion
295,25,cooker,1.16690931056,right,1,correct,arm1,2,arm12,lion
296,25,tooth,0.600308318215,left,1,correct,arm1,3,arm13,lion
297,25,crutches,1.03360861813,left,1,correct,decision,2,decision2,lion
298,25,stapler,0.383589646372,right,1,correct,arm2,1,arm21,lion
299,25,rose,0.43364472047,left,1,correct,arm2,2,arm22,lion
300,25,lion,0.80031852104,left,1,correct,arm2,3,arm23,lion
301,26,lion,0.483552185702,space,1,correct,target,NaN,targetNaN,lion
302,26,coffeepot,0.583627921995,left,1,correct,path,1,path1,lion
303,26,mosquito,0.166920479329,left,1,correct,path,2,path2,lion
304,26,canoe,0.166895425064,right,1,correct,path,3,path3,lion
305,26,goose,0.550209474633,left,1,correct,decision,1,decision1,lion
306,26,sailor,0.516950408579,right,1,correct,arm1,1,arm11,lion
307,26,cooker,0.833614111994,right,1,correct,arm1,2,arm12,lion
308,26,tooth,0.283619258669,left,1,correct,arm1,3,arm13,lion
309,26,crutches,0.800291051914,right,1,correct,decision,2,decision2,lion
310,26,stapler,0.516961577348,right,1,correct,arm2,1,arm21,lion
311,26,rose,0.200319305877,left,1,correct,arm2,2,arm22,lion
312,26,lion,0.833419111441,left,1,correct,arm2,3,arm23,lion
313,27,lion,0.216952914023,space,1,correct,target,NaN,targetNaN,lion
314,27,coffeepot,0.416944703436,left,1,correct,path,1,path1,lion
315,27,mosquito,0.383601720678,left,1,correct,path,2,path2,lion
316,27,canoe,0.316904284642,right,1,correct,path,3,path3,lion
317,27,goose,0.417165361985,right,1,correct,decision,1,decision1,lion
318,27,sailor,0.534238747729,right,1,correct,arm1,1,arm11,lion
319,27,cooker,0.333753117826,right,1,correct,arm1,2,arm12,lion
320,27,tooth,0.200427673,left,1,correct,arm1,3,arm13,lion
321,27,crutches,0.784361981379,left,1,correct,decision,2,decision2,lion
322,27,stapler,0.800311880128,right,1,correct,arm2,1,arm21,lion
323,27,rose,0.351016402652,left,1,correct,arm2,2,arm22,lion
324,27,lion,0.333572002768,left,1,correct,arm2,3,arm23,lion
325,28,lion,0.450272895163,space,1,correct,target,NaN,targetNaN,lion
326,28,coffeepot,0.216845150571,left,1,correct,path,1,path1,lion
327,28,mosquito,0.366946680646,left,1,correct,path,2,path2,lion
328,28,canoe,0.216923030035,right,1,correct,path,3,path3,lion
329,28,goose,0.683836174139,right,1,correct,decision,1,decision1,lion
330,28,sailor,0.966926274996,right,1,correct,arm1,1,arm11,lion
331,28,cooker,0.283558585157,right,1,correct,arm1,2,arm12,lion
332,28,tooth,0.283803694183,left,1,correct,arm1,3,arm13,lion
333,28,crutches,0.983625084569,right,1,correct,decision,2,decision2,lion
334,28,stapler,1.25033242162,right,1,correct,arm2,1,arm21,lion
335,28,rose,0.316976428789,left,1,correct,arm2,2,arm22,lion
336,28,lion,0.566978315357,left,1,correct,arm2,3,arm23,lion
337,29,lion,0.300541443517,space,1,correct,target,NaN,targetNaN,lion
338,29,coffeepot,0.333576530626,left,1,correct,path,1,path1,lion
339,29,mosquito,0.250272351783,left,1,correct,path,2,path2,lion
340,29,canoe,0.20026768808,right,1,correct,path,3,path3,lion
341,29,goose,0.516973047983,left,1,correct,decision,1,decision1,lion
342,29,sailor,0.500257032516,right,1,correct,arm1,1,arm11,lion
343,29,cooker,0.633775364782,right,1,correct,arm1,2,arm12,lion
344,29,tooth,0.266940673639,left,1,correct,arm1,3,arm13,lion
345,29,crutches,0.666978888912,right,1,correct,decision,2,decision2,lion
346,29,stapler,0.416938062583,right,1,correct,arm2,1,arm21,lion
347,29,rose,0.35025300266,left,1,correct,arm2,2,arm22,lion
348,29,lion,0.500256126863,left,1,correct,arm2,3,arm23,lion
349,30,lion,0.283582130098,space,1,correct,target,NaN,targetNaN,lion
350,30,coffeepot,0.38364367903,left,1,correct,path,1,path1,lion
351,30,mosquito,0.466984382772,left,1,correct,path,2,path2,lion
352,30,canoe,0.233859402186,right,1,correct,path,3,path3,lion
353,30,goose,0.517196423199,left,1,correct,decision,1,decision1,lion
354,30,sailor,0.417187397659,right,1,correct,arm1,1,arm11,lion
355,30,cooker,0.300250150147,right,1,correct,arm1,2,arm12,lion
356,30,tooth,0.266900828341,left,1,correct,arm1,3,arm13,lion
357,30,crutches,0.733711038774,left,1,correct,decision,2,decision2,lion
358,30,stapler,0.417002358416,right,1,correct,arm2,1,arm21,lion
359,30,rose,0.38368956151,left,1,correct,arm2,2,arm22,lion
360,30,lion,0.766920298222,left,1,correct,arm2,3,arm23,lion
361,31,lion,0.350278660655,space,1,correct,target,NaN,targetNaN,lion
362,31,coffeepot,0.266952144273,left,1,correct,path,1,path1,lion
363,31,mosquito,0.267238306114,left,1,correct,path,2,path2,lion
364,31,canoe,0.300561366137,right,1,correct,path,3,path3,lion
365,31,goose,0.550266525941,right,1,correct,decision,1,decision1,lion
366,31,sailor,0.53334947268,right,1,correct,arm1,1,arm11,lion
367,31,cooker,0.300381156674,right,1,correct,arm1,2,arm12,lion
368,31,tooth,0.317106227914,left,1,correct,arm1,3,arm13,lion
369,31,crutches,0.533587337122,right,1,correct,decision,2,decision2,lion
370,31,stapler,0.416727667267,right,1,correct,arm2,1,arm21,lion
371,31,rose,0.283688686148,left,1,correct,arm2,2,arm22,lion
372,31,lion,0.267321015301,left,1,correct,arm2,3,arm23,lion
373,32,bolt,0.600290206727,space,1,correct,target,NaN,targetNaN,bolt
374,32,coffeepot,0.616930153861,left,1,correct,path,1,path1,bolt
375,32,mosquito,0.366934002552,left,1,correct,path,2,path2,bolt
376,32,canoe,0.267559181608,right,1,correct,path,3,path3,bolt
377,32,domino,0.850427024066,left,1,correct,decision,1,decision1,bolt
378,32,ambulance,0.566689134983,right,1,correct,arm1,1,arm11,bolt
379,32,trunk,0.283815164876,left,1,correct,arm1,2,arm12,bolt
380,32,peach,0.533608769067,left,1,correct,arm1,3,arm13,bolt
381,32,garlic,0.866970376519,right,1,correct,decision,2,decision2,bolt
382,32,mug,0.933587216423,right,1,correct,arm2,1,arm21,bolt
383,32,branch,0.167237430695,left,1,correct,arm2,2,arm22,bolt
384,32,bolt,0.950300817029,right,1,correct,arm2,3,arm23,bolt
385,33,bolt,0.400369354,space,1,correct,target,NaN,targetNaN,bolt
386,33,coffeepot,0.416956777801,left,1,correct,path,1,path1,bolt
387,33,mosquito,0.200250783993,left,1,correct,path,2,path2,bolt
388,33,canoe,0.216952612158,right,1,correct,path,3,path3,bolt
389,33,domino,0.933643965807,right,1,correct,decision,1,decision1,bolt
390,33,ambulance,0.483580560423,right,1,correct,arm1,1,arm11,bolt
391,33,trunk,0.250339062477,left,1,correct,arm1,2,arm12,bolt
392,33,peach,0.266826873005,left,1,correct,arm1,3,arm13,bolt
393,33,garlic,0.833667239116,left,1,correct,decision,2,decision2,bolt
394,33,mug,0.350250587799,right,1,correct,arm2,1,arm21,bolt
395,33,branch,0.266927995603,left,1,correct,arm2,2,arm22,bolt
396,33,bolt,0.46707071428,right,1,correct,arm2,3,arm23,bolt
397,34,bolt,0.200333191373,space,1,correct,target,NaN,targetNaN,bolt
398,34,coffeepot,0.333646863641,left,1,correct,path,1,path1,bolt
399,34,mosquito,0.900240611343,left,1,correct,path,2,path2,bolt
400,34,canoe,0.114175846451,right,1,correct,path,3,path3,bolt
401,34,domino,0.850314129028,left,1,correct,decision,1,decision1,bolt
402,34,ambulance,0.317104416783,right,1,correct,arm1,1,arm11,bolt
403,34,trunk,0.283594204462,left,1,correct,arm1,2,arm12,bolt
404,34,peach,0.500252202735,left,1,correct,arm1,3,arm13,bolt
405,34,garlic,1.08377236128,right,1,correct,decision,2,decision2,bolt
406,34,mug,0.416948023892,right,1,correct,arm2,1,arm21,bolt
407,34,branch,0.266891772568,left,1,correct,arm2,2,arm22,bolt
408,34,bolt,0.417731346621,right,1,correct,arm2,3,arm23,bolt
409,35,bolt,0.400452666916,space,-1,miss,target,NaN,targetNaN,bolt
410,35,coffeepot,0.400253742235,left,-1,miss,path,1,path1,bolt
411,35,mosquito,0.350265982619,left,-1,miss,path,2,path2,bolt
412,35,canoe,0.216919407714,right,-1,miss,path,3,path3,bolt
413,35,domino,0.81697476859,right,-1,miss,decision,1,decision1,bolt
414,35,ambulance,1.31692662218,right,-1,miss,arm1,1,arm11,bolt
415,35,trunk,0.217344122531,left,-1,miss,arm1,2,arm12,bolt
416,35,peach,0.45010023209,left,-1,miss,arm1,3,arm13,bolt
417,35,crutches,1.56698646554,right,-1,miss,decision,2,decision2,bolt
418,35,stapler,0.383606248593,right,-1,miss,arm2,1,arm21,bolt
419,35,rose,0.267066548578,left,-1,miss,arm2,2,arm22,bolt
420,35,lion,1.66689889639,left,-1,miss,arm2,3,arm23,bolt
421,36,bolt,0.516920524591,space,1,correct,target,NaN,targetNaN,bolt
422,36,coffeepot,0.48359686078,left,1,correct,path,1,path1,bolt
423,36,mosquito,0.900244233664,left,1,correct,path,2,path2,bolt
424,36,canoe,0.114200900716,right,1,correct,path,3,path3,bolt
425,36,domino,0.51695523836,left,1,correct,decision,1,decision1,bolt
426,36,ambulance,0.367277517507,right,1,correct,arm1,1,arm11,bolt
427,36,trunk,0.216993664915,left,1,correct,arm1,2,arm12,bolt
428,36,peach,1.3835676107,left,1,correct,arm1,3,arm13,bolt
429,36,garlic,0.916998283355,left,1,correct,decision,2,decision2,bolt
430,36,mug,0.366924644972,right,1,correct,arm2,1,arm21,bolt
431,36,branch,0.216891032993,left,1,correct,arm2,2,arm22,bolt
432,36,bolt,0.850248927542,right,1,correct,arm2,3,arm23,bolt
433,37,bolt,3.43332082633,space,1,correct,target,NaN,targetNaN,bolt
434,37,coffeepot,0.533586431586,left,1,correct,path,1,path1,bolt
435,37,mosquito,1.26695214427,left,1,correct,path,2,path2,bolt
436,37,canoe,0.233581994253,right,1,correct,path,3,path3,bolt
437,37,domino,0.300318068243,left,1,correct,decision,1,decision1,bolt
438,37,ambulance,0.383965460118,right,1,correct,arm1,1,arm11,bolt
439,37,trunk,0.183705318545,left,1,correct,arm1,2,arm12,bolt
440,37,peach,0.450350170897,left,1,correct,arm1,3,arm13,bolt
441,37,garlic,1.38437296904,right,1,correct,decision,2,decision2,bolt
442,37,mug,0.567184182873,right,1,correct,arm2,1,arm21,bolt
443,37,branch,0.351200536301,left,1,correct,arm2,2,arm22,bolt
444,37,bolt,0.483676551434,right,1,correct,arm2,3,arm23,bolt
445,38,lion,0.35047426488,space,0,wrong,target,NaN,targetNaN,lion
446,38,coffeepot,1.3836041356,left,0,wrong,path,1,path1,lion
447,38,mosquito,2.66699518927,left,0,wrong,path,2,path2,lion
448,38,canoe,0.78360280738,right,0,wrong,path,3,path3,lion
449,38,domino,1.21695472515,right,0,wrong,decision,1,decision1,lion
450,38,ambulance,0.533774791227,right,0,wrong,arm1,1,arm11,lion
451,38,trunk,0.15023253666,left,0,wrong,arm1,2,arm12,lion
452,38,peach,0.400387465488,left,0,wrong,arm1,3,arm13,lion
453,38,crutches,1.61699384596,right,0,wrong,decision,2,decision2,lion
454,38,stapler,0.416920554766,right,0,wrong,arm2,1,arm21,lion
455,38,rose,0.200362471631,left,0,wrong,arm2,2,arm22,lion
456,38,lion,1.45027712116,left,0,wrong,arm2,3,arm23,lion
457,39,bolt,0.483557015483,space,1,correct,target,NaN,targetNaN,bolt
458,39,coffeepot,0.583570568939,left,1,correct,path,1,path1,bolt
459,39,mosquito,0.683718147513,left,1,correct,path,2,path2,bolt
460,39,canoe,0.133567837125,right,1,correct,path,3,path3,bolt
461,39,domino,0.633671223593,left,1,correct,decision,1,decision1,bolt
462,39,ambulance,0.383634019585,right,1,correct,arm1,1,arm11,bolt
463,39,trunk,0.283802184917,left,1,correct,arm1,2,arm12,bolt
464,39,peach,0.400333432888,left,1,correct,arm1,3,arm13,bolt
465,39,garlic,1.0502588285,left,1,correct,decision,2,decision2,bolt
466,39,mug,0.783858481504,right,1,correct,arm2,1,arm21,bolt
467,39,branch,0.3835772702,left,1,correct,arm2,2,arm22,bolt
468,39,bolt,0.633733708295,right,1,correct,arm2,3,arm23,bolt
469,40,lion,0.517634721706,space,1,correct,target,NaN,targetNaN,lion
470,40,coffeepot,0.383619530359,left,1,correct,path,1,path1,lion
471,40,mosquito,0.900311548146,left,1,correct,path,2,path2,lion
472,40,canoe,0.114094042801,right,1,correct,path,3,path3,lion
473,40,goose,0.567015745852,right,1,correct,decision,1,decision1,lion
474,40,sailor,0.716946725908,right,1,correct,arm1,1,arm11,lion
475,40,cooker,0.350282584783,right,1,correct,arm1,2,arm12,lion
476,40,tooth,0.300317464513,left,1,correct,arm1,3,arm13,lion
477,40,crutches,0.966942877218,left,1,correct,decision,2,decision2,lion
478,40,stapler,0.416927195678,right,1,correct,arm2,1,arm21,lion
479,40,rose,0.284443634097,left,1,correct,arm2,2,arm22,lion
480,40,lion,0.433581933903,left,1,correct,arm2,3,arm23,lion
481,41,bolt,0.35026296397,space,1,correct,target,NaN,targetNaN,bolt
482,41,coffeepot,0.300248942687,left,1,correct,path,1,path1,bolt
483,41,mosquito,0.433570161462,left,1,correct,path,2,path2,bolt
484,41,canoe,0.250277785235,right,1,correct,path,3,path3,bolt
485,41,domino,0.55059011816,right,1,correct,decision,1,decision1,bolt
486,41,ambulance,2.31690096413,right,1,correct,arm1,1,arm11,bolt
487,41,trunk,0.40029811539,left,1,correct,arm1,2,arm12,bolt
488,41,peach,0.384524501977,left,1,correct,arm1,3,arm13,bolt
489,41,garlic,1.45100973162,left,1,correct,decision,2,decision2,bolt
490,41,mug,0.616980564257,right,1,correct,arm2,1,arm21,bolt
491,41,branch,0.33363388374,left,1,correct,arm2,2,arm22,bolt
492,41,bolt,0.500258843647,right,1,correct,arm2,3,arm23,bolt
493,42,lion,1.93357423652,space,1,correct,target,NaN,targetNaN,lion
494,42,coffeepot,0.466928237118,left,1,correct,path,1,path1,lion
495,42,mosquito,0.550244490209,left,1,correct,path,2,path2,lion
496,42,canoe,0.114187317027,right,1,correct,path,3,path3,lion
497,42,goose,0.633633793157,right,1,correct,decision,1,decision1,lion
498,42,sailor,0.666925158119,right,1,correct,arm1,1,arm11,lion
499,42,cooker,2.83356460719,right,1,correct,arm1,2,arm12,lion
500,42,tooth,0.3835642903,left,1,correct,arm1,3,arm13,lion
501,42,crutches,4.68356269045,right,1,correct,decision,2,decision2,lion
502,42,stapler,0.483947922185,right,1,correct,arm2,1,arm21,lion
503,42,rose,0.250244882656,left,1,correct,arm2,2,arm22,lion
504,42,lion,1.08383605344,left,1,correct,arm2,3,arm23,lion
505,43,bolt,0.433640796284,space,1,correct,target,NaN,targetNaN,bolt
506,43,coffeepot,0.800246075029,left,1,correct,path,1,path1,bolt
507,43,mosquito,0.883558705857,left,1,correct,path,2,path2,bolt
508,43,canoe,0.114204824844,right,1,correct,path,3,path3,bolt
509,43,domino,4.31687953218,left,1,correct,decision,1,decision1,bolt
510,43,ambulance,0.450257198536,right,1,correct,arm1,1,arm11,bolt
511,43,trunk,0.133604060102,left,1,correct,arm1,2,arm12,bolt
512,43,peach,0.300254979811,left,1,correct,arm1,3,arm13,bolt
513,43,garlic,0.716979024757,left,1,correct,decision,2,decision2,bolt
514,43,mug,0.300272487628,right,1,correct,arm2,1,arm21,bolt
515,43,branch,0.216920615116,left,1,correct,arm2,2,arm22,bolt
516,43,bolt,0.600218364445,right,1,correct,arm2,3,arm23,bolt
517,44,lion,1.53358431859,space,1,correct,target,NaN,targetNaN,lion
518,44,coffeepot,1.7835934498,left,1,correct,path,1,path1,lion
519,44,mosquito,0.566877494683,left,1,correct,path,2,path2,lion
520,44,canoe,0.114294174942,right,1,correct,path,3,path3,lion
521,44,goose,0.750366380729,left,1,correct,decision,1,decision1,lion
522,44,sailor,0.533581903728,right,1,correct,arm1,1,arm11,lion
523,44,cooker,0.416949835082,right,1,correct,arm1,2,arm12,lion
524,44,tooth,0.350316392956,left,1,correct,arm1,3,arm13,lion
525,44,crutches,0.783663782815,left,1,correct,decision,2,decision2,lion
526,44,stapler,0.450283158279,right,1,correct,arm2,1,arm21,lion
527,44,rose,0.483849214448,left,1,correct,arm2,2,arm22,lion
528,44,lion,0.516913280007,left,1,correct,arm2,3,arm23,lion
529,45,bolt,0.367494553735,space,1,correct,target,NaN,targetNaN,bolt
530,45,coffeepot,0.416666993697,left,1,correct,path,1,path1,bolt
531,45,mosquito,0.283603863907,left,1,correct,path,2,path2,bolt
532,45,canoe,1.86713277636,right,1,correct,path,3,path3,bolt
533,45,domino,1.01694482425,right,1,correct,decision,1,decision1,bolt
534,45,ambulance,1.31694382802,right,1,correct,arm1,1,arm11,bolt
535,45,trunk,0.233628480462,left,1,correct,arm1,2,arm12,bolt
536,45,peach,0.350267190021,left,1,correct,arm1,3,arm13,bolt
537,45,garlic,0.750299971842,right,1,correct,decision,2,decision2,bolt
538,45,mug,1.21695925307,right,1,correct,arm2,1,arm21,bolt
539,45,branch,0.416914517584,left,1,correct,arm2,2,arm22,bolt
540,45,bolt,0.367827805458,right,1,correct,arm2,3,arm23,bolt
541,46,lion,0.433765765687,space,1,correct,target,NaN,targetNaN,lion
542,46,coffeepot,0.483820839785,left,1,correct,path,1,path1,lion
543,46,mosquito,0.250224356307,left,1,correct,path,2,path2,lion
544,46,canoe,0.266926788143,right,1,correct,path,3,path3,lion
545,46,goose,0.417040694389,left,1,correct,decision,1,decision1,lion
546,46,sailor,0.366977168364,right,1,correct,arm1,1,arm11,lion
547,46,cooker,0.633564969467,right,1,correct,arm1,2,arm12,lion
548,46,tooth,0.350264171429,left,1,correct,arm1,3,arm13,lion
549,46,crutches,2.55022185086,right,1,correct,decision,2,decision2,lion
550,46,stapler,2.28357277252,right,1,correct,arm2,1,arm21,lion
551,46,rose,0.21672018111,left,1,correct,arm2,2,arm22,lion
552,46,lion,1.38357002556,left,1,correct,arm2,3,arm23,lion
553,47,lion,0.466938500234,space,1,correct,target,NaN,targetNaN,lion
554,47,coffeepot,0.350272321608,left,1,correct,path,1,path1,lion
555,47,mosquito,0.400269438862,left,1,correct,path,2,path2,lion
556,47,canoe,0.600273604505,right,1,correct,path,3,path3,lion
557,47,goose,0.40064193221,right,1,correct,decision,1,decision1,lion
558,47,sailor,0.45028798806,right,1,correct,arm1,1,arm11,lion
559,47,cooker,0.950227465481,right,1,correct,arm1,2,arm12,lion
560,47,tooth,0.333581058483,left,1,correct,arm1,3,arm13,lion
561,47,crutches,0.867472970858,left,1,correct,decision,2,decision2,lion
562,47,stapler,0.233583201712,right,1,correct,arm2,1,arm21,lion
563,47,rose,0.400075645768,left,1,correct,arm2,2,arm22,lion
564,47,lion,1.03359895869,left,1,correct,arm2,3,arm23,lion
565,48,bolt,0.616929851996,space,-1,miss,target,NaN,targetNaN,bolt
566,48,coffeepot,0.433666756144,left,-1,miss,path,1,path1,bolt
567,48,mosquito,0.217309710744,left,-1,miss,path,2,path2,bolt
568,48,canoe,0.216782967676,right,-1,miss,path,3,path3,bolt
569,48,domino,0.600062907324,left,-1,miss,decision,1,decision1,bolt
570,48,ambulance,0.600253681827,right,-1,miss,arm1,1,arm11,bolt
571,48,trunk,0.383672355616,left,-1,miss,arm1,2,arm12,bolt
572,48,peach,0.450552717899,left,-1,miss,arm1,3,arm13,bolt
573,48,crutches,0.733916302503,left,-1,miss,decision,2,decision2,bolt
574,48,stapler,1.48370522796,right,-1,miss,arm2,1,arm21,bolt
575,48,rose,0.150234045985,left,-1,miss,arm2,2,arm22,bolt
576,48,lion,0.600265454326,left,-1,miss,arm2,3,arm23,bolt
577,49,bolt,0.30027973227,space,1,correct,target,NaN,targetNaN,bolt
578,49,coffeepot,0.266991385841,left,1,correct,path,1,path1,bolt
579,49,mosquito,0.250324875116,left,1,correct,path,2,path2,bolt
580,49,canoe,0.166929836909,right,1,correct,path,3,path3,bolt
581,49,domino,1.61674934067,right,1,correct,decision,1,decision1,bolt
582,49,ambulance,0.850217836152,right,1,correct,arm1,1,arm11,bolt
583,49,trunk,0.466931557516,left,1,correct,arm1,2,arm12,bolt
584,49,peach,0.200275536394,left,1,correct,arm1,3,arm13,bolt
585,49,garlic,0.450370093575,left,1,correct,decision,2,decision2,bolt
586,49,mug,0.450360132207,right,1,correct,arm2,1,arm21,bolt
587,49,branch,0.217072148109,left,1,correct,arm2,2,arm22,bolt
588,49,bolt,0.583599547332,right,1,correct,arm2,3,arm23,bolt
589,50,lion,0.20030240179,space,1,correct,target,NaN,targetNaN,lion
590,50,coffeepot,0.433692112216,left,1,correct,path,1,path1,lion
591,50,mosquito,0.217735934828,left,1,correct,path,2,path2,lion
592,50,canoe,0.13362337905,right,1,correct,path,3,path3,lion
593,50,goose,1.38395821559,left,1,correct,decision,1,decision1,lion
594,50,sailor,0.666927271173,right,1,correct,arm1,1,arm11,lion
595,50,cooker,0.833709197468,right,1,correct,arm1,2,arm12,lion
596,50,tooth,0.201012372854,left,1,correct,arm1,3,arm13,lion
597,50,crutches,5.13352738804,left,1,correct,decision,2,decision2,lion
598,50,stapler,0.416884935461,right,1,correct,arm2,1,arm21,lion
599,50,rose,2.16687248385,left,1,correct,arm2,2,arm22,lion
600,50,lion,1.53356892383,left,1,correct,arm2,3,arm23,lion
