pic_index,trial_num,pic_name,rt,resp,feedback_code,feedback,segment,segment_index,pic_type,trial_target
1,1,beaver,2.96687304787,space,1,correct,target,NaN,targetNaN,beaver
2,1,trophy,2.13369622867,right,1,correct,path,1,path1,beaver
3,1,astronaut,0.683588902582,right,1,correct,path,2,path2,beaver
4,1,robot,0.483578397834,right,1,correct,path,3,path3,beaver
5,1,pigeon,2.15025925188,right,1,correct,decision,1,decision1,beaver
6,1,bus,15.8498409654,left,1,correct,arm1,1,arm11,beaver
7,1,deer,2.98358277482,left,1,correct,arm1,2,arm12,beaver
8,1,fist,2.06690893904,right,1,correct,arm1,3,arm13,beaver
9,1,stepladder,3.98360028269,right,1,correct,decision,2,decision2,beaver
10,1,calc,1.50031649956,right,1,correct,arm2,1,arm21,beaver
11,1,tongue,1.33358900825,right,1,correct,arm2,2,arm22,beaver
12,1,beaver,0.833607874403,left,1,correct,arm2,3,arm23,beaver
13,2,arc,2.96698352846,space,-1,miss,target,NaN,targetNaN,arc
14,2,trophy,0.716943456617,right,-1,miss,path,1,path1,arc
15,2,astronaut,0.350295716547,right,-1,miss,path,2,path2,arc
16,2,robot,0.300284562807,right,-1,miss,path,3,path3,arc
17,2,watch,1.03380673937,left,-1,miss,decision,1,decision1,arc
18,2,clover,1.08359119669,left,-1,miss,arm1,1,arm11,arc
19,2,radio,0.500325857196,right,-1,miss,arm1,2,arm12,arc
20,2,wing,0.550503939157,left,-1,miss,arm1,3,arm13,arc
21,2,stepladder,2.633611859,left,-1,miss,decision,2,decision2,arc
22,2,calc,1.00025567488,right,-1,miss,arm2,1,arm21,arc
23,2,tongue,0.433585355699,right,-1,miss,arm2,2,arm22,arc
24,2,beaver,1.53363150998,left,-1,miss,arm2,3,arm23,arc
25,3,beaver,3.9169334349,space,-1,miss,target,NaN,targetNaN,beaver
26,3,trophy,0.483711215958,right,-1,miss,path,1,path1,beaver
27,3,astronaut,0.23359386815,right,-1,miss,path,2,path2,beaver
28,3,robot,0.350254059944,right,-1,miss,path,3,path3,beaver
29,3,pigeon,1.31696380198,right,-1,miss,decision,1,decision1,beaver
30,3,bus,0.950240295148,left,-1,miss,arm1,1,arm11,beaver
31,3,deer,0.883588238445,left,-1,miss,arm1,2,arm12,beaver
32,3,fist,0.483587151743,right,-1,miss,arm1,3,arm13,beaver
33,3,holly,1.00025386369,left,-1,miss,decision,2,decision2,beaver
34,3,match,1.15041742625,right,-1,miss,arm2,1,arm21,beaver
35,3,baby,0.83365858678,left,-1,miss,arm2,2,arm22,beaver
36,3,arc,0.850370728585,left,-1,miss,arm2,3,arm23,beaver
37,4,beaver,3.16697441228,space,-1,miss,target,NaN,targetNaN,beaver
38,4,trophy,0.566709862731,right,-1,miss,path,1,path1,beaver
39,4,astronaut,0.333575424564,right,-1,miss,path,2,path2,beaver
40,4,robot,0.400268232275,right,-1,miss,path,3,path3,beaver
41,4,watch,1.56693233311,right,-1,miss,decision,1,decision1,beaver
42,4,clover,2.10075884429,left,-1,miss,arm1,1,arm11,beaver
43,4,radio,0.400240159302,right,-1,miss,arm1,2,arm12,beaver
44,4,wing,0.400235933252,left,-1,miss,arm1,3,arm13,beaver
45,4,holly,0.866970880539,left,-1,miss,decision,2,decision2,beaver
46,4,match,1.68360912718,right,-1,miss,arm2,1,arm21,beaver
47,4,baby,0.53360464453,left,-1,miss,arm2,2,arm22,beaver
48,4,arc,0.750353854615,left,-1,miss,arm2,3,arm23,beaver
49,5,arc,3.1003120924,space,-1,miss,target,NaN,targetNaN,arc
50,5,trophy,0.550263659097,right,-1,miss,path,1,path1,arc
51,5,astronaut,0.217297084862,right,-1,miss,path,2,path2,arc
52,5,robot,0.183712513943,right,-1,miss,path,3,path3,arc
53,5,watch,1.30025498057,left,-1,miss,decision,1,decision1,arc
54,5,clover,1.48368857655,left,-1,miss,arm1,1,arm11,arc
55,5,radio,0.283579061914,right,-1,miss,arm1,2,arm12,arc
56,5,wing,0.383577220608,left,-1,miss,arm1,3,arm13,arc
57,5,stepladder,0.950447068783,left,-1,miss,decision,2,decision2,arc
58,5,calc,1.16712594568,right,-1,miss,arm2,1,arm21,arc
59,5,tongue,0.367189577664,right,-1,miss,arm2,2,arm22,arc
60,5,beaver,0.916946716723,left,-1,miss,arm2,3,arm23,arc
61,6,beaver,0.633624235168,space,-1,miss,target,NaN,targetNaN,beaver
62,6,trophy,0.383682871412,right,-1,miss,path,1,path1,beaver
63,6,astronaut,0.23358209565,right,-1,miss,path,2,path2,beaver
64,6,robot,0.100238438696,right,-1,miss,path,3,path3,beaver
65,6,pigeon,2.80004262255,right,-1,miss,decision,1,decision1,beaver
66,6,bus,1.81688728061,left,-1,miss,arm1,1,arm11,beaver
67,6,deer,0.650243102456,left,-1,miss,arm1,2,arm12,beaver
68,6,fist,0.533394852246,right,-1,miss,arm1,3,arm13,beaver
69,6,holly,1.45102950645,right,-1,miss,decision,2,decision2,beaver
70,6,match,0.600283264823,right,-1,miss,arm2,1,arm21,beaver
71,6,baby,0.500315292098,left,-1,miss,arm2,2,arm22,beaver
72,6,arc,0.200260746118,left,-1,miss,arm2,3,arm23,beaver
73,7,beaver,0.566971272929,space,-1,miss,target,NaN,targetNaN,beaver
74,7,trophy,0.367014801013,right,-1,miss,path,1,path1,beaver
75,7,astronaut,0.0335987582803,right,-1,miss,path,2,path2,beaver
76,7,robot,0.200245049433,right,-1,miss,path,3,path3,beaver
77,7,pigeon,2.15028460807,left,-1,miss,decision,1,decision1,beaver
78,7,bus,1.26691099163,left,-1,miss,arm1,1,arm11,beaver
79,7,deer,0.466898253129,left,-1,miss,arm1,2,arm12,beaver
80,7,fist,0.1842332214,right,-1,miss,arm1,3,arm13,beaver
81,7,holly,0.783566836617,right,-1,miss,decision,2,decision2,beaver
82,7,match,0.566923277336,right,-1,miss,arm2,1,arm21,beaver
83,7,baby,0.650241291267,left,-1,miss,arm2,2,arm22,beaver
84,7,arc,1.41692543559,left,-1,miss,arm2,3,arm23,beaver
85,8,beaver,1.06698168709,space,-1,miss,target,NaN,targetNaN,beaver
86,8,trophy,0.383595332154,right,-1,miss,path,1,path1,beaver
87,8,astronaut,0.183575469826,right,-1,miss,path,2,path2,beaver
88,8,robot,0.166910116212,right,-1,miss,path,3,path3,beaver
89,8,pigeon,0.766937706212,right,-1,miss,decision,1,decision1,beaver
90,8,bus,0.933693572297,left,-1,miss,arm1,1,arm11,beaver
91,8,deer,0.56696433021,left,-1,miss,arm1,2,arm12,beaver
92,8,fist,0.550276638998,right,-1,miss,arm1,3,arm13,beaver
93,8,holly,0.85069824598,right,-1,miss,decision,2,decision2,beaver
94,8,match,1.2502622403,right,-1,miss,arm2,1,arm21,beaver
95,8,baby,0.350334052695,left,-1,miss,arm2,2,arm22,beaver
96,8,arc,0.466940211656,left,-1,miss,arm2,3,arm23,beaver
97,9,arc,0.300300863222,space,-1,miss,target,NaN,targetNaN,arc
98,9,trophy,0.666949508886,right,-1,miss,path,1,path1,arc
99,9,astronaut,0.183595392504,right,-1,miss,path,2,path2,arc
100,9,robot,0.150335924176,right,-1,miss,path,3,path3,arc
101,9,watch,0.633764599857,right,-1,miss,decision,1,decision1,arc
102,9,clover,1.31692244718,left,-1,miss,arm1,1,arm11,arc
103,9,radio,0.433597430121,right,-1,miss,arm1,2,arm12,arc
104,9,wing,0.516923292424,left,-1,miss,arm1,3,arm13,arc
105,9,stepladder,1.28364305611,left,-1,miss,decision,2,decision2,arc
106,9,calc,0.616930506891,right,-1,miss,arm2,1,arm21,arc
107,9,tongue,0.400259478309,right,-1,miss,arm2,2,arm22,arc
108,9,beaver,0.350251343218,left,-1,miss,arm2,3,arm23,arc
109,10,arc,3.91691622889,space,-1,miss,target,NaN,targetNaN,arc
110,10,trophy,0.516937781649,right,-1,miss,path,1,path1,arc
111,10,astronaut,0.0335721946904,right,-1,miss,path,2,path2,arc
112,10,robot,0.100232099649,right,-1,miss,path,3,path3,arc
113,10,watch,1.85032092175,right,-1,miss,decision,1,decision1,arc
114,10,clover,0.950255991833,left,-1,miss,arm1,1,arm11,arc
115,10,radio,0.250321404717,right,-1,miss,arm1,2,arm12,arc
116,10,wing,0.350280321669,left,-1,miss,arm1,3,arm13,arc
117,10,stepladder,1.20025682193,right,-1,miss,decision,2,decision2,arc
118,10,calc,0.450298704905,right,-1,miss,arm2,1,arm21,arc
119,10,tongue,0.167011541023,right,-1,miss,arm2,2,arm22,arc
120,10,beaver,0.333607723471,left,-1,miss,arm2,3,arm23,arc
121,11,beaver,0.534335144155,space,-1,miss,target,NaN,targetNaN,beaver
122,11,trophy,0.616911791556,right,-1,miss,path,1,path1,beaver
123,11,astronaut,0.0168995964341,right,-1,miss,path,2,path2,beaver
124,11,robot,0.316917315591,right,-1,miss,path,3,path3,beaver
125,11,pigeon,0.850389141997,right,-1,miss,decision,1,decision1,beaver
126,11,bus,0.600276623911,left,-1,miss,arm1,1,arm11,beaver
127,11,deer,0.366737090459,left,-1,miss,arm1,2,arm12,beaver
128,11,fist,0.266760061961,right,-1,miss,arm1,3,arm13,beaver
129,11,holly,0.750282917696,right,-1,miss,decision,2,decision2,beaver
130,11,match,0.533595286892,right,-1,miss,arm2,1,arm21,beaver
131,11,baby,0.467071520456,left,-1,miss,arm2,2,arm22,beaver
132,11,arc,0.550279355724,left,-1,miss,arm2,3,arm23,beaver
133,12,arc,2.48363726039,space,-1,miss,target,NaN,targetNaN,arc
134,12,trophy,1.18359569443,right,-1,miss,path,1,path1,arc
135,12,astronaut,0.066915278032,right,-1,miss,path,2,path2,arc
136,12,robot,0.0502315110643,right,-1,miss,path,3,path3,arc
137,12,watch,0.633705435379,left,-1,miss,decision,1,decision1,arc
138,12,clover,1.53357928834,left,-1,miss,arm1,1,arm11,arc
139,12,radio,0.350288471906,right,-1,miss,arm1,2,arm12,arc
140,12,wing,0.283682901587,left,-1,miss,arm1,3,arm13,arc
141,12,stepladder,0.700269349094,left,-1,miss,decision,2,decision2,arc
142,12,calc,0.550704373745,right,-1,miss,arm2,1,arm21,arc
143,12,tongue,0.350439703441,right,-1,miss,arm2,2,arm22,arc
144,12,beaver,0.200050350104,left,-1,miss,arm2,3,arm23,arc
145,13,beaver,28.8833265264,space,-1,miss,target,NaN,targetNaN,beaver
146,13,trophy,0.633589219477,right,-1,miss,path,1,path1,beaver
147,13,astronaut,0.150236914342,right,-1,miss,path,2,path2,beaver
148,13,robot,0.166969582555,right,-1,miss,path,3,path3,beaver
149,13,pigeon,1.21697349165,left,-1,miss,decision,1,decision1,beaver
150,13,bus,0.650479156466,left,-1,miss,arm1,1,arm11,beaver
151,13,deer,0.400301134912,left,-1,miss,arm1,2,arm12,beaver
152,13,fist,0.216936362907,right,-1,miss,arm1,3,arm13,beaver
153,13,holly,0.616962503933,left,-1,miss,decision,2,decision2,beaver
154,13,match,0.500338535232,right,-1,miss,arm2,1,arm21,beaver
155,13,baby,0.566953161382,left,-1,miss,arm2,2,arm22,beaver
156,13,arc,0.566964632017,left,-1,miss,arm2,3,arm23,beaver
157,14,arc,1.0673348626,space,-1,miss,target,NaN,targetNaN,arc
158,14,trophy,0.483682237507,right,-1,miss,path,1,path1,arc
159,14,astronaut,0.0669092408498,right,-1,miss,path,2,path2,arc
160,14,robot,0.18358694046,right,-1,miss,path,3,path3,arc
161,14,watch,0.850350202178,right,-1,miss,decision,1,decision1,arc
162,14,clover,1.25024684548,left,-1,miss,arm1,1,arm11,arc
163,14,radio,0.833621458092,right,-1,miss,arm1,2,arm12,arc
164,14,wing,0.250261334761,left,-1,miss,arm1,3,arm13,arc
165,14,stepladder,0.883622952271,right,-1,miss,decision,2,decision2,arc
166,14,calc,0.500264579721,right,-1,miss,arm2,1,arm21,arc
167,14,tongue,0.566915127099,right,-1,miss,arm2,2,arm22,arc
168,14,beaver,0.116942430264,left,-1,miss,arm2,3,arm23,arc
169,15,arc,0.633786635532,space,-1,miss,target,NaN,targetNaN,arc
170,15,trophy,0.566925692197,right,-1,miss,path,1,path1,arc
171,15,astronaut,0.017528067634,right,-1,miss,path,2,path2,arc
172,15,robot,0.0169014075655,right,-1,miss,path,3,path3,arc
173,15,watch,0.567031946674,left,-1,miss,decision,1,decision1,arc
174,15,clover,0.650271779101,left,-1,miss,arm1,1,arm11,arc
175,15,radio,0.234337347792,right,-1,miss,arm1,2,arm12,arc
176,15,wing,0.200396280969,left,-1,miss,arm1,3,arm13,arc
177,15,stepladder,0.716953116062,left,-1,miss,decision,2,decision2,arc
178,15,calc,0.75043173437,right,-1,miss,arm2,1,arm21,arc
179,15,tongue,0.500324951601,right,-1,miss,arm2,2,arm22,arc
180,15,beaver,0.0836023654556,left,-1,miss,arm2,3,arm23,arc
181,16,arc,0.66703493509,space,-1,miss,target,NaN,targetNaN,arc
182,16,trophy,0.416922417004,right,-1,miss,path,1,path1,arc
183,16,astronaut,0.0337095406721,right,-1,miss,path,2,path2,arc
184,16,robot,0.000240581925027,right,-1,miss,path,3,path3,arc
185,16,pigeon,2.1836711592,right,-1,miss,decision,1,decision1,arc
186,16,bus,1.08358304651,left,-1,miss,arm1,1,arm11,arc
187,16,deer,0.383595332154,left,-1,miss,arm1,2,arm12,arc
188,16,fist,0.366927563737,right,-1,miss,arm1,3,arm13,arc
189,16,stepladder,0.966948814574,left,-1,miss,decision,2,decision2,arc
190,16,calc,0.650232235552,right,-1,miss,arm2,1,arm21,arc
191,16,tongue,0.233820262656,right,-1,miss,arm2,2,arm22,arc
192,16,beaver,0.233747816412,left,-1,miss,arm2,3,arm23,arc
193,17,beaver,0.33363730571,space,-1,miss,target,NaN,targetNaN,beaver
194,17,trophy,0.334096131963,right,-1,miss,path,1,path1,beaver
195,17,astronaut,0.0172038706951,right,-1,miss,path,2,path2,beaver
196,17,robot,0.0336292460561,right,-1,miss,path,3,path3,beaver
197,17,pigeon,0.333794876293,right,-1,miss,decision,1,decision1,beaver
198,17,bus,0.700225579494,left,-1,miss,arm1,1,arm11,beaver
199,17,deer,0.350268851034,left,-1,miss,arm1,2,arm12,beaver
200,17,fist,0.0835933097405,right,-1,miss,arm1,3,arm13,beaver
201,17,holly,0.483660805505,right,-1,miss,decision,2,decision2,beaver
202,17,match,0.783613624808,right,-1,miss,arm2,1,arm21,beaver
203,17,baby,0.416926944919,left,-1,miss,arm2,2,arm22,beaver
204,17,arc,0.516925103555,left,-1,miss,arm2,3,arm23,beaver
205,18,arc,2.83366824628,space,-1,miss,target,NaN,targetNaN,arc
206,18,trophy,0.38358386152,right,-1,miss,path,1,path1,arc
207,18,astronaut,0.0336395092891,right,-1,miss,path,2,path2,arc
208,18,robot,0.150288230448,right,-1,miss,path,3,path3,arc
209,18,watch,0.950268368062,left,-1,miss,decision,1,decision1,arc
210,18,clover,0.683776960941,left,-1,miss,arm1,1,arm11,arc
211,18,radio,0.183967585152,right,-1,miss,arm1,2,arm12,arc
212,18,wing,0.250239299028,left,-1,miss,arm1,3,arm13,arc
213,18,stepladder,0.600366879837,right,-1,miss,decision,2,decision2,arc
214,18,calc,0.483737477742,right,-1,miss,arm2,1,arm21,arc
215,18,tongue,0.48358171829,right,-1,miss,arm2,2,arm22,arc
216,18,beaver,0.217001262645,left,-1,miss,arm2,3,arm23,arc
217,19,beaver,0.416972827516,space,-1,miss,target,NaN,targetNaN,beaver
218,19,trophy,0.350279717997,right,-1,miss,path,1,path1,beaver
219,19,astronaut,0.050232114736,right,-1,miss,path,2,path2,beaver
220,19,robot,0.150235103152,right,-1,miss,path,3,path3,beaver
221,19,pigeon,0.717115214618,left,-1,miss,decision,1,decision1,beaver
222,19,bus,0.600361144519,left,-1,miss,arm1,1,arm11,beaver
223,19,deer,0.183897251904,left,-1,miss,arm1,2,arm12,beaver
224,19,fist,0.0836862823926,right,-1,miss,arm1,3,arm13,beaver
225,19,holly,0.416962866148,left,-1,miss,decision,2,decision2,beaver
226,19,match,0.550265168364,right,-1,miss,arm2,1,arm21,beaver
227,19,baby,0.666733377613,left,-1,miss,arm2,2,arm22,beaver
228,19,arc,0.900303398841,left,-1,miss,arm2,3,arm23,beaver
229,20,arc,0.183970603743,space,-1,miss,target,NaN,targetNaN,arc
230,20,trophy,0.383576013148,right,-1,miss,path,1,path1,arc
231,20,astronaut,0.00036826840369,right,-1,miss,path,2,path2,arc
232,20,robot,0.150256233348,right,-1,miss,path,3,path3,arc
233,20,pigeon,1.43364602944,left,-1,miss,decision,1,decision1,arc
234,20,bus,1.03357913747,left,-1,miss,arm1,1,arm11,arc
235,20,deer,0.36693722324,left,-1,miss,arm1,2,arm12,arc
236,20,fist,0.083577914862,right,-1,miss,arm1,3,arm13,arc
237,20,stepladder,0.700285045779,right,-1,miss,decision,2,decision2,arc
238,20,calc,0.53362124681,right,-1,miss,arm2,1,arm21,arc
239,20,tongue,0.383665061672,right,-1,miss,arm2,2,arm22,arc
240,20,beaver,0.233608961164,left,-1,miss,arm2,3,arm23,arc
241,21,arc,0.650288683246,space,-1,miss,target,NaN,targetNaN,arc
242,21,trophy,0.800320333161,right,-1,miss,path,1,path1,arc
243,21,astronaut,0.200252595881,right,-1,miss,path,2,path2,arc
244,21,robot,0.250258316169,right,-1,miss,path,3,path3,arc
245,21,pigeon,1.43356754602,right,-1,miss,decision,1,decision1,arc
246,21,bus,1.00029310543,left,-1,miss,arm1,1,arm11,arc
247,21,deer,0.383587785705,left,-1,miss,arm1,2,arm12,arc
248,21,fist,0.13361080247,right,-1,miss,arm1,3,arm13,arc
249,21,stepladder,0.583405402256,right,-1,miss,decision,2,decision2,arc
250,21,calc,0.466960738064,right,-1,miss,arm2,1,arm21,arc
251,21,tongue,0.0669913465972,right,-1,miss,arm2,2,arm22,arc
252,21,beaver,0.183823296335,left,-1,miss,arm2,3,arm23,arc
253,22,arc,0.233603829518,space,-1,miss,target,NaN,targetNaN,arc
254,22,trophy,0.466878330451,right,-1,miss,path,1,path1,arc
255,22,astronaut,0.0669282579911,right,-1,miss,path,2,path2,arc
256,22,robot,0.0336609412916,right,-1,miss,path,3,path3,arc
257,22,pigeon,1.45026942459,right,-1,miss,decision,1,decision1,arc
258,22,bus,0.383659326355,left,-1,miss,arm1,1,arm11,arc
259,22,deer,0.166963545373,left,-1,miss,arm1,2,arm12,arc
260,22,fist,0.0669442565413,right,-1,miss,arm1,3,arm13,arc
261,22,stepladder,0.750675938616,left,-1,miss,decision,2,decision2,arc
262,22,calc,0.433820806036,right,-1,miss,arm2,1,arm21,arc
263,22,tongue,0.133590577927,right,-1,miss,arm2,2,arm22,arc
264,22,beaver,0.117122942174,left,-1,miss,arm2,3,arm23,arc
265,23,beaver,0.183733040409,space,0,wrong,target,NaN,targetNaN,beaver
266,23,trophy,0.283599286515,right,0,wrong,path,1,path1,beaver
267,23,astronaut,0.0336123419111,right,0,wrong,path,2,path2,beaver
268,23,robot,0.0169092559372,right,0,wrong,path,3,path3,beaver
269,23,watch,0.566986064077,left,0,wrong,decision,1,decision1,beaver
270,23,clover,0.583582291845,left,0,wrong,arm1,1,arm11,beaver
271,23,radio,0.0513610687922,right,0,wrong,arm1,2,arm12,beaver
272,23,wing,0.200254708936,left,0,wrong,arm1,3,arm13,beaver
273,23,stepladder,0.650276608823,right,0,wrong,decision,2,decision2,beaver
274,23,calc,0.616714375559,right,0,wrong,arm2,1,arm21,beaver
275,23,tongue,0.033572798362,right,0,wrong,arm2,2,arm22,beaver
276,23,beaver,0.133613217331,left,0,wrong,arm2,3,arm23,beaver
277,24,arc,1.60031405452,space,-1,miss,target,NaN,targetNaN,arc
278,24,trophy,0.466938098602,right,-1,miss,path,1,path1,arc
279,24,astronaut,0.033583061595,right,-1,miss,path,2,path2,arc
280,24,robot,0.0669044110691,right,-1,miss,path,3,path3,arc
281,24,watch,0.86703427101,right,-1,miss,decision,1,decision1,arc
282,24,clover,0.533598607348,left,-1,miss,arm1,1,arm11,arc
283,24,radio,0.40026732668,right,-1,miss,arm1,2,arm12,arc
284,24,wing,0.100235420105,left,-1,miss,arm1,3,arm13,arc
285,24,stepladder,0.416987618664,left,-1,miss,decision,2,decision2,arc
286,24,calc,0.233699518954,right,-1,miss,arm2,1,arm21,arc
287,24,tongue,0.133598426182,right,-1,miss,arm2,2,arm22,arc
288,24,beaver,0.100229081057,left,-1,miss,arm2,3,arm23,arc
289,25,beaver,0.400684798195,space,0,wrong,target,NaN,targetNaN,beaver
290,25,trophy,0.450247690722,right,0,wrong,path,1,path1,beaver
291,25,astronaut,0.0169029168901,right,0,wrong,path,2,path2,beaver
292,25,robot,0.0502312091412,right,0,wrong,path,3,path3,beaver
293,25,watch,0.983655824792,left,0,wrong,decision,1,decision1,beaver
294,25,clover,0.650240083807,left,0,wrong,arm1,1,arm11,beaver
295,25,radio,0.116881152848,right,0,wrong,arm1,2,arm12,beaver
296,25,wing,0.166923699959,left,0,wrong,arm1,3,arm13,beaver
297,25,stepladder,0.866917149571,right,0,wrong,decision,2,decision2,beaver
298,25,calc,0.600275416509,right,0,wrong,arm2,1,arm21,beaver
299,25,tongue,0.233579982596,right,0,wrong,arm2,2,arm22,beaver
300,25,beaver,0.166914040456,left,0,wrong,arm2,3,arm23,beaver
301,26,beaver,2.18370466563,space,1,correct,target,NaN,targetNaN,beaver
302,26,trophy,1.11692250759,right,1,correct,path,1,path1,beaver
303,26,astronaut,0.0336053991923,right,1,correct,path,2,path2,beaver
304,26,robot,0.0504926193389,right,1,correct,path,3,path3,beaver
305,26,pigeon,0.68363599258,right,1,correct,decision,1,decision1,beaver
306,26,bus,0.933668517973,left,1,correct,arm1,1,arm11,beaver
307,26,deer,0.416932982102,left,1,correct,arm1,2,arm12,beaver
308,26,fist,0.300264036399,right,1,correct,arm1,3,arm13,beaver
309,26,stepladder,0.350298131409,right,1,correct,decision,2,decision2,beaver
310,26,calc,0.500260655535,right,1,correct,arm2,1,arm21,beaver
311,26,tongue,0.0169020113535,right,1,correct,arm2,2,arm22,beaver
312,26,beaver,0.0669025999377,left,1,correct,arm2,3,arm23,beaver
313,27,beaver,0.383694040182,space,0,wrong,target,NaN,targetNaN,beaver
314,27,trophy,0.350266436173,right,0,wrong,path,1,path1,beaver
315,27,astronaut,0.0337856092374,right,0,wrong,path,2,path2,beaver
316,27,robot,0.0502825253061,right,0,wrong,path,3,path3,beaver
317,27,watch,0.533813833084,left,0,wrong,decision,1,decision1,beaver
318,27,clover,0.816922296304,left,0,wrong,arm1,1,arm11,beaver
319,27,radio,0.000305481662508,right,0,wrong,arm1,2,arm12,beaver
320,27,wing,0.117238554347,left,0,wrong,arm1,3,arm13,beaver
321,27,stepladder,1.85061493277,left,0,wrong,decision,2,decision2,beaver
322,27,calc,0.566938672098,right,0,wrong,arm2,1,arm21,beaver
323,27,tongue,0.433580827841,right,0,wrong,arm2,2,arm22,beaver
324,27,beaver,0.900266270153,left,0,wrong,arm2,3,arm23,beaver
325,28,arc,0.68367100833,space,-1,miss,target,NaN,targetNaN,arc
326,28,trophy,0.283585401019,right,-1,miss,path,1,path1,arc
327,28,astronaut,0.0335691760411,right,-1,miss,path,2,path2,arc
328,28,robot,0.0336044935975,right,-1,miss,path,3,path3,arc
329,28,watch,0.950302780024,right,-1,miss,decision,1,decision1,arc
330,28,clover,0.533705767419,left,-1,miss,arm1,1,arm11,arc
331,28,radio,0.167083987268,right,-1,miss,arm1,2,arm12,arc
332,28,wing,0.0341209749458,left,-1,miss,arm1,3,arm13,arc
333,28,stepladder,0.550310749153,left,-1,miss,decision,2,decision2,arc
334,28,calc,0.383727244684,right,-1,miss,arm2,1,arm21,arc
335,28,tongue,0.0502547541982,right,-1,miss,arm2,2,arm22,arc
336,28,beaver,0.966871538607,left,-1,miss,arm2,3,arm23,arc
337,29,arc,0.700298931333,space,-1,miss,target,NaN,targetNaN,arc
338,29,trophy,0.483662012906,right,-1,miss,path,1,path1,arc
339,29,astronaut,0.0502103808685,right,-1,miss,path,2,path2,arc
340,29,robot,0.366920922825,right,-1,miss,path,3,path3,arc
341,29,watch,0.550361461472,left,-1,miss,decision,1,decision1,arc
342,29,clover,0.566944709339,left,-1,miss,arm1,1,arm11,arc
343,29,radio,0.0669623680878,right,-1,miss,arm1,2,arm12,arc
344,29,wing,0.100341674581,left,-1,miss,arm1,3,arm13,arc
345,29,stepladder,0.566942898149,left,-1,miss,decision,2,decision2,arc
346,29,calc,0.450324966689,right,-1,miss,arm2,1,arm21,arc
347,29,tongue,0.0500567344716,right,-1,miss,arm2,2,arm22,arc
348,29,beaver,0.200400507019,left,-1,miss,arm2,3,arm23,arc
349,30,arc,0.217408772849,space,1,correct,target,NaN,targetNaN,arc
350,30,trophy,0.300470206363,right,1,correct,path,1,path1,arc
351,30,astronaut,0.0169186135754,right,1,correct,path,2,path2,arc
352,30,robot,0.0335549886804,right,1,correct,path,3,path3,arc
353,30,watch,0.683743152651,left,1,correct,decision,1,decision1,arc
354,30,clover,0.966918930528,left,1,correct,arm1,1,arm11,arc
355,30,radio,0.166913738591,right,1,correct,arm1,2,arm12,arc
356,30,wing,0.100434043561,left,1,correct,arm1,3,arm13,arc
357,30,holly,0.233618922473,right,1,correct,decision,2,decision2,arc
358,30,match,0.483601037296,right,1,correct,arm2,1,arm21,arc
359,30,baby,0.316934521601,left,1,correct,arm2,2,arm22,arc
360,30,arc,0.13353986555,left,1,correct,arm2,3,arm23,arc
361,31,beaver,0.566974593385,space,1,correct,target,NaN,targetNaN,beaver
362,31,trophy,0.35006086994,right,1,correct,path,1,path1,beaver
363,31,astronaut,0.033579741139,right,1,correct,path,2,path2,beaver
364,31,robot,0.0169189154403,right,1,correct,path,3,path3,beaver
365,31,pigeon,1.0669774611,right,1,correct,decision,1,decision1,beaver
366,31,bus,0.900363166991,left,1,correct,arm1,1,arm11,beaver
367,31,deer,0.200292139547,left,1,correct,arm1,2,arm12,beaver
368,31,fist,0.116915564809,right,1,correct,arm1,3,arm13,beaver
369,31,stepladder,0.866988690279,right,1,correct,decision,2,decision2,beaver
370,31,calc,0.400309285091,right,1,correct,arm2,1,arm21,beaver
371,31,tongue,0.100265304209,right,1,correct,arm2,2,arm22,beaver
372,31,beaver,0.0835748962709,left,1,correct,arm2,3,arm23,beaver
373,32,arc,0.150297588028,space,-1,miss,target,NaN,targetNaN,arc
374,32,trophy,0.217018468713,right,-1,miss,path,1,path1,arc
375,32,astronaut,0.0335752132232,right,-1,miss,path,2,path2,arc
376,32,robot,0.03356615745,right,-1,miss,path,3,path3,arc
377,32,watch,1.26695415756,right,-1,miss,decision,1,decision1,arc
378,32,clover,0.600254286313,left,-1,miss,arm1,1,arm11,arc
379,32,radio,0.0502417742391,right,-1,miss,arm1,2,arm12,arc
380,32,wing,0.0168977853027,left,-1,miss,arm1,3,arm13,arc
381,32,stepladder,1.58356901002,left,-1,miss,decision,2,decision2,arc
382,32,calc,0.283594456734,right,-1,miss,arm2,1,arm21,arc
383,32,tongue,0.0335887969122,right,-1,miss,arm2,2,arm22,arc
384,32,beaver,0.500211754348,left,-1,miss,arm2,3,arm23,arc
385,33,beaver,0.150296380569,space,1,correct,target,NaN,targetNaN,beaver
386,33,trophy,0.216922477412,right,1,correct,path,1,path1,beaver
387,33,astronaut,0.016934008454,right,1,correct,path,2,path2,beaver
388,33,robot,0.0169074448058,right,1,correct,path,3,path3,beaver
389,33,pigeon,1.70029410155,left,1,correct,decision,1,decision1,beaver
390,33,bus,0.483603452158,left,1,correct,arm1,1,arm11,beaver
391,33,deer,0.150326868461,left,1,correct,arm1,2,arm12,beaver
392,33,fist,0.500246468175,right,1,correct,arm1,3,arm13,beaver
393,33,stepladder,0.750385549851,left,1,correct,decision,2,decision2,beaver
394,33,calc,0.450250105583,right,1,correct,arm2,1,arm21,beaver
395,33,tongue,0.283641848713,right,1,correct,arm2,2,arm22,beaver
396,33,beaver,0.150240536605,left,1,correct,arm2,3,arm23,beaver
397,34,arc,0.300274601497,space,-1,miss,target,NaN,targetNaN,arc
398,34,trophy,0.16694090591,right,-1,miss,path,1,path1,arc
399,34,astronaut,0.0669095427147,right,-1,miss,path,2,path2,arc
400,34,robot,0.0837994796457,right,-1,miss,path,3,path3,arc
401,34,watch,0.783584646299,right,-1,miss,decision,1,decision1,arc
402,34,clover,0.333834721765,left,-1,miss,arm1,1,arm11,arc
403,34,radio,0.100327789085,right,-1,miss,arm1,2,arm12,arc
404,34,wing,0.0669333895785,left,-1,miss,arm1,3,arm13,arc
405,34,stepladder,0.616938053281,left,-1,miss,decision,2,decision2,arc
406,34,calc,0.333610742062,right,-1,miss,arm2,1,arm21,arc
407,34,tongue,0.167328795185,right,-1,miss,arm2,2,arm22,arc
408,34,beaver,0.383626423718,left,-1,miss,arm2,3,arm23,arc
409,35,arc,0.133639780921,space,1,correct,target,NaN,targetNaN,arc
410,35,trophy,0.23369559471,right,1,correct,path,1,path1,arc
411,35,astronaut,0.0338022115175,right,1,correct,path,2,path2,arc
412,35,robot,0.0170441870578,right,1,correct,path,3,path3,arc
413,35,watch,0.417064894631,left,1,correct,decision,1,decision1,arc
414,35,clover,0.367031403352,left,1,correct,arm1,1,arm11,arc
415,35,radio,0.0335703835008,right,1,correct,arm1,2,arm12,arc
416,35,wing,0.0335875894525,left,1,correct,arm1,3,arm13,arc
417,35,holly,0.284057810903,right,1,correct,decision,2,decision2,arc
418,35,match,0.384141395742,right,1,correct,arm2,1,arm21,arc
419,35,baby,0.250264051487,left,1,correct,arm2,2,arm22,arc
420,35,arc,0.233609564835,left,1,correct,arm2,3,arm23,arc
421,36,beaver,0.150315699633,space,1,correct,target,NaN,targetNaN,beaver
422,36,trophy,0.36685904162,right,1,correct,path,1,path1,beaver
423,36,astronaut,0.0170686377096,right,1,correct,path,2,path2,beaver
424,36,robot,0.0169228396262,right,1,correct,path,3,path3,beaver
425,36,pigeon,2.30063622899,right,1,correct,decision,1,decision1,beaver
426,36,bus,0.266926084645,left,1,correct,arm1,1,arm11,beaver
427,36,deer,0.316923050908,left,1,correct,arm1,2,arm12,beaver
428,36,fist,0.000259900931269,right,1,correct,arm1,3,arm13,beaver
429,36,stepladder,0.517130669788,right,1,correct,decision,2,decision2,beaver
430,36,calc,0.800354443258,right,1,correct,arm2,1,arm21,beaver
431,36,tongue,0.983588510135,right,1,correct,arm2,2,arm22,beaver
432,36,beaver,0.133604161558,left,1,correct,arm2,3,arm23,beaver
433,37,beaver,0.533797230804,space,1,correct,target,NaN,targetNaN,beaver
434,37,trophy,0.350274888217,right,1,correct,path,1,path1,beaver
435,37,astronaut,0.100450343976,right,1,correct,path,2,path2,beaver
436,37,robot,0.150269213249,right,1,correct,path,3,path3,beaver
437,37,pigeon,0.43346823426,right,1,correct,decision,1,decision1,beaver
438,37,bus,0.250247449207,left,1,correct,arm1,1,arm11,beaver
439,37,deer,0.08336419845,left,1,correct,arm1,2,arm12,beaver
440,37,fist,0.166978034598,right,1,correct,arm1,3,arm13,beaver
441,37,stepladder,0.433684969321,left,1,correct,decision,2,decision2,beaver
442,37,calc,0.233656654891,right,1,correct,arm2,1,arm21,beaver
443,37,tongue,0.0336117382394,right,1,correct,arm2,2,arm22,beaver
444,37,beaver,0.116939713538,left,1,correct,arm2,3,arm23,beaver
445,38,beaver,0.167113267642,space,1,correct,target,NaN,targetNaN,beaver
446,38,trophy,0.183603240876,right,1,correct,path,1,path1,beaver
447,38,astronaut,0.0333651191322,right,1,correct,path,2,path2,beaver
448,38,robot,0.0335933247698,right,1,correct,path,3,path3,beaver
449,38,pigeon,0.783546008344,right,1,correct,decision,1,decision1,beaver
450,38,bus,0.23359326442,left,1,correct,arm1,1,arm11,beaver
451,38,deer,0.516929933277,left,1,correct,arm1,2,arm12,beaver
452,38,fist,0.0336032861378,right,1,correct,arm1,3,arm13,beaver
453,38,stepladder,0.617350996938,right,1,correct,decision,2,decision2,beaver
454,38,calc,0.433583242702,right,1,correct,arm2,1,arm21,beaver
455,38,tongue,0.316951727553,right,1,correct,arm2,2,arm22,beaver
456,38,beaver,0.0169596664491,left,1,correct,arm2,3,arm23,beaver
457,39,beaver,0.16695267841,space,1,correct,target,NaN,targetNaN,beaver
458,39,trophy,0.166902871628,right,1,correct,path,1,path1,beaver
459,39,astronaut,0.0335960415541,right,1,correct,path,2,path2,beaver
460,39,robot,0.016903218755,right,1,correct,path,3,path3,beaver
461,39,pigeon,0.466977944016,right,1,correct,decision,1,decision1,beaver
462,39,bus,0.250303595094,left,1,correct,arm1,1,arm11,beaver
463,39,deer,0.0502429816406,left,1,correct,arm1,2,arm12,beaver
464,39,fist,0.233701028221,right,1,correct,arm1,3,arm13,beaver
465,39,stepladder,0.416977657296,left,1,correct,decision,2,decision2,beaver
466,39,calc,0.23375777778,right,1,correct,arm2,1,arm21,beaver
467,39,tongue,0.0169835133711,right,1,correct,arm2,2,arm22,beaver
468,39,beaver,0.0836352681508,left,1,correct,arm2,3,arm23,beaver
469,40,arc,0.183638558432,space,1,correct,target,NaN,targetNaN,arc
470,40,trophy,0.30029422231,right,1,correct,path,1,path1,arc
471,40,astronaut,0.066908335255,right,1,correct,path,2,path2,arc
472,40,robot,0.0500636772485,right,1,correct,path,3,path3,arc
473,40,watch,1.00026805111,right,1,correct,decision,1,decision1,arc
474,40,clover,0.466922401916,left,1,correct,arm1,1,arm11,arc
475,40,radio,0.0335724964971,right,1,correct,arm1,2,arm12,arc
476,40,wing,0.0503338413546,left,1,correct,arm1,3,arm13,arc
477,40,holly,0.500442978635,right,1,correct,decision,2,decision2,arc
478,40,match,0.250282163033,right,1,correct,arm2,1,arm21,arc
479,40,baby,0.116923111316,left,1,correct,arm2,2,arm22,arc
480,40,arc,0.10046543699,left,1,correct,arm2,3,arm23,arc
481,41,arc,0.233629185706,space,1,correct,target,NaN,targetNaN,arc
482,41,trophy,0.300271884771,right,1,correct,path,1,path1,arc
483,41,astronaut,0.0169095578021,right,1,correct,path,2,path2,arc
484,41,robot,0.01694668649,right,1,correct,path,3,path3,arc
485,41,watch,1.20032594772,left,1,correct,decision,1,decision1,arc
486,41,clover,0.883800143725,left,1,correct,arm1,1,arm11,arc
487,41,radio,1.20021486352,right,1,correct,arm1,2,arm12,arc
488,41,wing,0.533795419673,left,1,correct,arm1,3,arm13,arc
489,41,holly,0.916937660892,left,1,correct,decision,2,decision2,arc
490,41,match,0.21695598372,right,1,correct,arm2,1,arm21,arc
491,41,baby,0.266874768538,left,1,correct,arm2,2,arm22,arc
492,41,arc,0.0669255412649,left,1,correct,arm2,3,arm23,arc
493,42,arc,0.367009971349,space,-1,miss,target,NaN,targetNaN,arc
494,42,trophy,0.233603829518,right,-1,miss,path,1,path1,arc
495,42,astronaut,0.0335477440385,right,-1,miss,path,2,path2,arc
496,42,robot,0.100303942221,right,-1,miss,path,3,path3,arc
497,42,pigeon,0.983607225469,left,-1,miss,decision,1,decision1,arc
498,42,bus,0.80024154787,left,-1,miss,arm1,1,arm11,arc
499,42,deer,0.400371166237,left,-1,miss,arm1,2,arm12,arc
500,42,fist,0.0836494555115,right,-1,miss,arm1,3,arm13,arc
501,42,stepladder,0.916972072853,left,-1,miss,decision,2,decision2,arc
502,42,calc,0.183781941596,right,-1,miss,arm2,1,arm21,arc
503,42,tongue,0.0335670630448,right,-1,miss,arm2,2,arm22,arc
504,42,beaver,0.300259206619,left,-1,miss,arm2,3,arm23,arc
505,43,beaver,0.250296954182,space,1,correct,target,NaN,targetNaN,beaver
506,43,trophy,0.100479624351,right,1,correct,path,1,path1,beaver
507,43,astronaut,0.0169177080388,right,1,correct,path,2,path2,beaver
508,43,robot,0.0169901542831,right,1,correct,path,3,path3,beaver
509,43,pigeon,0.300317163637,right,1,correct,decision,1,decision1,beaver
510,43,bus,0.366966503556,left,1,correct,arm1,1,arm11,beaver
511,43,deer,0.0502363407868,left,1,correct,arm1,2,arm12,beaver
512,43,fist,0.100268020935,right,1,correct,arm1,3,arm13,beaver
513,43,stepladder,1.56694561488,left,1,correct,decision,2,decision2,beaver
514,43,calc,0.266899822804,right,1,correct,arm2,1,arm21,beaver
515,43,tongue,0.100246287067,right,1,correct,arm2,2,arm22,beaver
516,43,beaver,0.0502752806642,left,1,correct,arm2,3,arm23,beaver
517,44,arc,0.150312982907,space,1,correct,target,NaN,targetNaN,arc
518,44,trophy,0.183551321097,right,1,correct,path,1,path1,arc
519,44,astronaut,0.0335613277275,right,1,correct,path,2,path2,arc
520,44,robot,0.0169995119213,right,1,correct,path,3,path3,arc
521,44,watch,0.467034995439,right,1,correct,decision,1,decision1,arc
522,44,clover,0.316984932055,left,1,correct,arm1,1,arm11,arc
523,44,radio,0.0336696951999,right,1,correct,arm1,2,arm12,arc
524,44,wing,0.0670601705206,left,1,correct,arm1,3,arm13,arc
525,44,holly,0.467047069862,right,1,correct,decision,2,decision2,arc
526,44,match,0.283661771391,right,1,correct,arm2,1,arm21,arc
527,44,baby,0.0336392074241,left,1,correct,arm2,2,arm22,arc
528,44,arc,0.0670028172317,left,1,correct,arm2,3,arm23,arc
529,45,arc,0.183672668529,space,1,correct,target,NaN,targetNaN,arc
530,45,trophy,0.26701211452,right,1,correct,path,1,path1,arc
531,45,astronaut,0.0336072103237,right,1,correct,path,2,path2,arc
532,45,robot,0.0333904753206,right,1,correct,path,3,path3,arc
533,45,watch,0.500330385054,right,1,correct,decision,1,decision1,arc
534,45,clover,0.216977415781,left,1,correct,arm1,1,arm11,arc
535,45,radio,0.0504105136497,right,1,correct,arm1,2,arm12,arc
536,45,wing,0.0667145415791,left,1,correct,arm1,3,arm13,arc
537,45,holly,0.483634845586,left,1,correct,decision,2,decision2,arc
538,45,match,0.233590245887,right,1,correct,arm2,1,arm21,arc
539,45,baby,0.100294584525,left,1,correct,arm2,2,arm22,arc
540,45,arc,0.0503063721699,left,1,correct,arm2,3,arm23,arc
541,46,arc,0.25030510436,space,1,correct,target,NaN,targetNaN,arc
542,46,trophy,0.333605912339,right,1,correct,path,1,path1,arc
543,46,astronaut,0.0337318782695,right,1,correct,path,2,path2,arc
544,46,robot,0.0336509799818,right,1,correct,path,3,path3,arc
545,46,watch,0.583639645134,left,1,correct,decision,1,decision1,arc
546,46,clover,0.400227783073,left,1,correct,arm1,1,arm11,arc
547,46,radio,0.23410763283,right,1,correct,arm1,2,arm12,arc
548,46,wing,0.133605369017,left,1,correct,arm1,3,arm13,arc
549,46,holly,0.733644127729,right,1,correct,decision,2,decision2,arc
550,46,match,0.433615843474,right,1,correct,arm2,1,arm21,arc
551,46,baby,0.0335872876458,left,1,correct,arm2,2,arm22,arc
552,46,arc,0.0335806467338,left,1,correct,arm2,3,arm23,arc
553,47,beaver,0.550259433046,space,1,correct,target,NaN,targetNaN,beaver
554,47,trophy,0.200325645856,right,1,correct,path,1,path1,beaver
555,47,astronaut,0.0168944648467,right,1,correct,path,2,path2,beaver
556,47,robot,0.0335764206829,right,1,correct,path,3,path3,beaver
557,47,pigeon,0.883850554237,right,1,correct,decision,1,decision1,beaver
558,47,bus,0.466966171516,left,1,correct,arm1,1,arm11,beaver
559,47,deer,0.366921828419,left,1,correct,arm1,2,arm12,beaver
560,47,fist,0.000256580475252,right,1,correct,arm1,3,arm13,beaver
561,47,stepladder,0.383631253382,left,1,correct,decision,2,decision2,beaver
562,47,calc,0.20026859449,right,1,correct,arm2,1,arm21,beaver
563,47,tongue,0.150253818429,right,1,correct,arm2,2,arm22,beaver
564,47,beaver,0.0502755825291,left,1,correct,arm2,3,arm23,beaver
565,48,beaver,0.550352405699,space,1,correct,target,NaN,targetNaN,beaver
566,48,trophy,0.400242574164,right,1,correct,path,1,path1,beaver
567,48,astronaut,0.0336485650623,right,1,correct,path,2,path2,beaver
568,48,robot,0.0502351333853,right,1,correct,path,3,path3,beaver
569,48,pigeon,0.483652655268,left,1,correct,decision,1,decision1,beaver
570,48,bus,0.333583876607,left,1,correct,arm1,1,arm11,beaver
571,48,deer,0.400253441127,left,1,correct,arm1,2,arm12,beaver
572,48,fist,1.23359688674,right,1,correct,arm1,3,arm13,beaver
573,48,stepladder,0.816976027214,right,1,correct,decision,2,decision2,beaver
574,48,calc,0.51708690013,right,1,correct,arm2,1,arm21,beaver
575,48,tongue,0.10026590788,right,1,correct,arm2,2,arm22,beaver
576,48,beaver,0.0502441891003,left,1,correct,arm2,3,arm23,beaver
577,49,beaver,0.217005186831,space,1,correct,target,NaN,targetNaN,beaver
578,49,trophy,0.300456018944,right,1,correct,path,1,path1,beaver
579,49,astronaut,0.0335984564153,right,1,correct,path,2,path2,beaver
580,49,robot,0.0503099944908,right,1,correct,path,3,path3,beaver
581,49,pigeon,0.733629336639,left,1,correct,decision,1,decision1,beaver
582,49,bus,0.366912470781,left,1,correct,arm1,1,arm11,beaver
583,49,deer,0.0668938460294,left,1,correct,arm1,2,arm12,beaver
584,49,fist,0.100271039526,right,1,correct,arm1,3,arm13,beaver
585,49,stepladder,0.483777926886,left,1,correct,decision,2,decision2,beaver
586,49,calc,0.150221519463,right,1,correct,arm2,1,arm21,beaver
587,49,tongue,0.0502342277905,right,1,correct,arm2,2,arm22,beaver
588,49,beaver,0.100245683338,left,1,correct,arm2,3,arm23,beaver
589,50,beaver,0.166930039006,space,1,correct,target,NaN,targetNaN,beaver
590,50,trophy,0.333598063968,right,1,correct,path,1,path1,beaver
591,50,astronaut,0.0169026150252,right,1,correct,path,2,path2,beaver
592,50,robot,0.0335646481253,right,1,correct,path,3,path3,beaver
593,50,pigeon,0.533702446963,right,1,correct,decision,1,decision1,beaver
594,50,bus,0.300260112213,left,1,correct,arm1,1,arm11,beaver
595,50,deer,0.0337348968023,left,1,correct,arm1,2,arm12,beaver
596,50,fist,0.0836570020183,right,1,correct,arm1,3,arm13,beaver
597,50,stepladder,0.283684712718,right,1,correct,decision,2,decision2,beaver
598,50,calc,0.300447265035,right,1,correct,arm2,1,arm21,beaver
599,50,tongue,0.350238061394,right,1,correct,arm2,2,arm22,beaver
600,50,beaver,0.0335685723112,left,1,correct,arm2,3,arm23,beaver
