pic_index,trial_num,pic_name,rt,resp,feedback_code,feedback,segment,segment_index,pic_type,trial_target
1,1,bolt,1.4836106968,space,-1,miss,target,NaN,targetNaN,bolt
2,1,coffeepot,1.01693400845,left,-1,miss,path,1,path1,bolt
3,1,mosquito,0.483660201775,left,-1,miss,path,2,path2,bolt
4,1,canoe,0.500297784281,right,-1,miss,path,3,path3,bolt
5,1,goose,1.58364055073,left,-1,miss,decision,1,decision1,bolt
6,1,sailor,0.716901800013,left,-1,miss,arm1,1,arm11,bolt
7,1,cooker,1.45025070931,right,-1,miss,arm1,2,arm12,bolt
8,1,tooth,0.550282374315,left,-1,miss,arm1,3,arm13,bolt
9,1,crutches,2.55026758322,right,-1,miss,decision,2,decision2,bolt
10,1,stapler,1.93355532072,left,-1,miss,arm2,1,arm21,bolt
11,1,rose,0.533589853439,right,-1,miss,arm2,2,arm22,bolt
12,1,lion,0.550253999594,left,-1,miss,arm2,3,arm23,bolt
13,2,lion,0.700323683792,space,-1,miss,target,NaN,targetNaN,lion
14,2,coffeepot,1.30024109507,left,-1,miss,path,1,path1,lion
15,2,mosquito,0.333627646207,left,-1,miss,path,2,path2,lion
16,2,canoe,0.114144797728,right,-1,miss,path,3,path3,lion
17,2,goose,2.06694516214,right,-1,miss,decision,1,decision1,lion
18,2,sailor,0.716964284889,left,-1,miss,arm1,1,arm11,lion
19,2,cooker,0.733591906086,right,-1,miss,arm1,2,arm12,lion
20,2,tooth,0.266931216174,left,-1,miss,arm1,3,arm13,lion
21,2,garlic,0.783624793636,right,-1,miss,decision,2,decision2,lion
22,2,mug,1.36711320723,right,-1,miss,arm2,1,arm21,lion
23,2,branch,1.15017503314,left,-1,miss,arm2,2,arm22,lion
24,2,bolt,0.466927533504,right,-1,miss,arm2,3,arm23,lion
25,3,bolt,0.383657515165,space,1,correct,target,NaN,targetNaN,bolt
26,3,coffeepot,0.86692590348,left,1,correct,path,1,path1,bolt
27,3,mosquito,0.150272533705,left,1,correct,path,2,path2,bolt
28,3,canoe,0.114219960698,right,1,correct,path,3,path3,bolt
29,3,domino,1.28334663023,right,1,correct,decision,1,decision1,bolt
30,3,ambulance,1.78358525009,right,1,correct,arm1,1,arm11,bolt
31,3,trunk,0.566941087018,left,1,correct,arm1,2,arm12,bolt
32,3,peach,0.433608598891,left,1,correct,arm1,3,arm13,bolt
33,3,garlic,1.11692401685,right,1,correct,decision,2,decision2,bolt
34,3,mug,0.650261817733,right,1,correct,arm2,1,arm21,bolt
35,3,branch,0.433821711631,left,1,correct,arm2,2,arm22,bolt
36,3,bolt,0.833610892994,right,1,correct,arm2,3,arm23,bolt
37,4,bolt,0.250284879759,space,1,correct,target,NaN,targetNaN,bolt
38,4,coffeepot,0.884342886857,left,1,correct,path,1,path1,bolt
39,4,mosquito,0.150226952974,left,1,correct,path,2,path2,bolt
40,4,canoe,0.116938808002,right,1,correct,path,3,path3,bolt
41,4,domino,0.68365199113,right,1,correct,decision,1,decision1,bolt
42,4,ambulance,1.2667790791,right,1,correct,arm1,1,arm11,bolt
43,4,trunk,0.30029361858,left,1,correct,arm1,2,arm12,bolt
44,4,peach,0.23354889109,left,1,correct,arm1,3,arm13,bolt
45,4,garlic,0.666933510336,right,1,correct,decision,2,decision2,bolt
46,4,mug,0.533586834848,right,1,correct,arm2,1,arm21,bolt
47,4,branch,0.383629442251,left,1,correct,arm2,2,arm22,bolt
48,4,bolt,0.483614017256,right,1,correct,arm2,3,arm23,bolt
49,5,bolt,0.233628883841,space,1,correct,target,NaN,targetNaN,bolt
50,5,coffeepot,0.650251252635,left,1,correct,path,1,path1,bolt
51,5,mosquito,0.100250211253,left,1,correct,path,2,path2,bolt
52,5,canoe,0.0502402649727,right,1,correct,path,3,path3,bolt
53,5,domino,0.71699628199,right,1,correct,decision,1,decision1,bolt
54,5,ambulance,0.350363333011,right,1,correct,arm1,1,arm11,bolt
55,5,trunk,0.450262783677,left,1,correct,arm1,2,arm12,bolt
56,5,peach,0.0834303056472,left,1,correct,arm1,3,arm13,bolt
57,5,garlic,0.484292295296,right,1,correct,decision,2,decision2,bolt
58,5,mug,0.483604961482,right,1,correct,arm2,1,arm21,bolt
59,5,branch,0.400090135168,left,1,correct,arm2,2,arm22,bolt
60,5,bolt,0.3503449196,right,1,correct,arm2,3,arm23,bolt
61,6,lion,0.300406212162,space,1,correct,target,NaN,targetNaN,lion
62,6,coffeepot,0.700283838378,left,1,correct,path,1,path1,lion
63,6,mosquito,0.117136223998,left,1,correct,path,2,path2,lion
64,6,canoe,0.0668002696475,right,1,correct,path,3,path3,lion
65,6,goose,0.567063641909,right,1,correct,decision,1,decision1,lion
66,6,sailor,0.533604342665,left,1,correct,arm1,1,arm11,lion
67,6,cooker,0.500256731408,right,1,correct,arm1,2,arm12,lion
68,6,tooth,0.216932438721,left,1,correct,arm1,3,arm13,lion
69,6,crutches,0.600272096053,left,1,correct,decision,2,decision2,lion
70,6,stapler,0.95024693606,left,1,correct,arm2,1,arm21,lion
71,6,rose,0.233771059604,right,1,correct,arm2,2,arm22,lion
72,6,lion,0.216910403047,left,1,correct,arm2,3,arm23,lion
73,7,bolt,0.266964420793,space,1,correct,target,NaN,targetNaN,bolt
74,7,coffeepot,0.55031105096,left,1,correct,path,1,path1,bolt
75,7,mosquito,0.31689769472,left,1,correct,path,2,path2,bolt
76,7,canoe,0.11410766904,right,1,correct,path,3,path3,bolt
77,7,domino,0.516951969068,right,1,correct,decision,1,decision1,bolt
78,7,ambulance,0.366949901334,right,1,correct,arm1,1,arm11,bolt
79,7,trunk,0.266924877185,left,1,correct,arm1,2,arm12,bolt
80,7,peach,0.0502550560632,left,1,correct,arm1,3,arm13,bolt
81,7,garlic,0.450289649132,right,1,correct,decision,2,decision2,bolt
82,7,mug,0.450264896674,right,1,correct,arm2,1,arm21,bolt
83,7,branch,0.183586034866,left,1,correct,arm2,2,arm22,bolt
84,7,bolt,0.15024566825,right,1,correct,arm2,3,arm23,bolt
85,8,lion,0.1338184817,space,1,correct,target,NaN,targetNaN,lion
86,8,coffeepot,0.7668872957,left,1,correct,path,1,path1,lion
87,8,mosquito,0.166955998866,left,1,correct,path,2,path2,lion
88,8,canoe,0.0503151260782,right,1,correct,path,3,path3,lion
89,8,goose,0.38359804888,right,1,correct,decision,1,decision1,lion
90,8,sailor,0.433594713395,left,1,correct,arm1,1,arm11,lion
91,8,cooker,0.333694960806,right,1,correct,arm1,2,arm12,lion
92,8,tooth,0.0669306728523,left,1,correct,arm1,3,arm13,lion
93,8,crutches,0.516990305216,right,1,correct,decision,2,decision2,lion
94,8,stapler,0.4502558409,left,1,correct,arm2,1,arm21,lion
95,8,rose,0.116882360307,right,1,correct,arm2,2,arm22,lion
96,8,lion,0.116940619133,left,1,correct,arm2,3,arm23,lion
97,9,bolt,0.166977129062,space,-1,miss,target,NaN,targetNaN,bolt
98,9,coffeepot,0.383576616936,left,-1,miss,path,1,path1,bolt
99,9,mosquito,0.433541586099,left,-1,miss,path,2,path2,bolt
100,9,canoe,0.114164720406,right,-1,miss,path,3,path3,bolt
101,9,domino,0.617024385079,left,-1,miss,decision,1,decision1,bolt
102,9,ambulance,0.23341878975,right,-1,miss,arm1,1,arm11,bolt
103,9,trunk,0.283681694127,left,-1,miss,arm1,2,arm12,bolt
104,9,peach,0.200258331257,left,-1,miss,arm1,3,arm13,bolt
105,9,crutches,0.61677836976,right,-1,miss,decision,2,decision2,bolt
106,9,stapler,0.783596116991,left,-1,miss,arm2,1,arm21,bolt
107,9,rose,0.0836265141843,right,-1,miss,arm2,2,arm22,bolt
108,9,lion,0.0836035729153,left,-1,miss,arm2,3,arm23,bolt
109,10,lion,0.11703510111,space,-1,miss,target,NaN,targetNaN,lion
110,10,coffeepot,0.450230786577,left,-1,miss,path,1,path1,lion
111,10,mosquito,0.0835718776798,left,-1,miss,path,2,path2,lion
112,10,canoe,0.133876438718,right,-1,miss,path,3,path3,lion
113,10,goose,0.550357839151,right,-1,miss,decision,1,decision1,lion
114,10,sailor,0.316938445729,left,-1,miss,arm1,1,arm11,lion
115,10,cooker,0.267080938502,right,-1,miss,arm1,2,arm12,lion
116,10,tooth,0.0836449276539,left,-1,miss,arm1,3,arm13,lion
117,10,garlic,0.634345980943,right,-1,miss,decision,2,decision2,lion
118,10,mug,0.633545751742,right,-1,miss,arm2,1,arm21,lion
119,10,branch,0.116967786453,left,-1,miss,arm2,2,arm22,lion
120,10,bolt,0.133843536023,right,-1,miss,arm2,3,arm23,lion
121,11,lion,0.150519756542,space,-1,miss,target,NaN,targetNaN,lion
122,11,coffeepot,0.383583559655,left,-1,miss,path,1,path1,lion
123,11,mosquito,0.0336177754216,left,-1,miss,path,2,path2,lion
124,11,canoe,0.0502293980098,right,-1,miss,path,3,path3,lion
125,11,goose,0.63363147981,left,-1,miss,decision,1,decision1,lion
126,11,sailor,0.433635766211,left,-1,miss,arm1,1,arm11,lion
127,11,cooker,0.150252611027,right,-1,miss,arm1,2,arm12,lion
128,11,tooth,0.0836056859116,left,-1,miss,arm1,3,arm13,lion
129,11,garlic,0.71691055398,right,-1,miss,decision,2,decision2,lion
130,11,mug,0.566970669257,right,-1,miss,arm2,1,arm21,lion
131,11,branch,0.0669524067198,left,-1,miss,arm2,2,arm22,lion
132,11,bolt,0.0502764880657,right,-1,miss,arm2,3,arm23,lion
133,12,bolt,0.217392774241,space,-1,miss,target,NaN,targetNaN,bolt
134,12,coffeepot,0.36691820604,left,-1,miss,path,1,path1,bolt
135,12,mosquito,0.0502680360223,left,-1,miss,path,2,path2,bolt
136,12,canoe,0.0502544523333,right,-1,miss,path,3,path3,bolt
137,12,domino,0.666936528927,left,-1,miss,decision,1,decision1,bolt
138,12,ambulance,0.283621322247,right,-1,miss,arm1,1,arm11,bolt
139,12,trunk,0.100363106641,left,-1,miss,arm1,2,arm12,bolt
140,12,peach,0.250372117152,left,-1,miss,arm1,3,arm13,bolt
141,12,crutches,0.417131907423,right,-1,miss,decision,2,decision2,bolt
142,12,stapler,0.566859585,left,-1,miss,arm2,1,arm21,bolt
143,12,rose,0.0669804796926,right,-1,miss,arm2,2,arm22,bolt
144,12,lion,0.0835987431929,left,-1,miss,arm2,3,arm23,bolt
145,13,lion,0.317132541328,space,-1,miss,target,NaN,targetNaN,lion
146,13,coffeepot,0.450306553277,left,-1,miss,path,1,path1,lion
147,13,mosquito,0.033710144402,left,-1,miss,path,2,path2,lion
148,13,canoe,0.100282510219,right,-1,miss,path,3,path3,lion
149,13,goose,0.800306447607,left,-1,miss,decision,1,decision1,lion
150,13,sailor,0.533712710196,left,-1,miss,arm1,1,arm11,lion
151,13,cooker,0.166978336463,right,-1,miss,arm1,2,arm12,lion
152,13,tooth,0.116915866616,left,-1,miss,arm1,3,arm13,lion
153,13,garlic,1.31676215987,right,-1,miss,decision,2,decision2,lion
154,13,mug,0.433582035243,right,-1,miss,arm2,1,arm21,lion
155,13,branch,0.100249003794,left,-1,miss,arm2,2,arm22,lion
156,13,bolt,0.0835706702783,right,-1,miss,arm2,3,arm23,lion
157,14,bolt,0.200304817583,space,1,correct,target,NaN,targetNaN,bolt
158,14,coffeepot,0.283557931776,left,1,correct,path,1,path1,bolt
159,14,mosquito,0.0502713564783,left,1,correct,path,2,path2,bolt
160,14,canoe,0.0669345970382,right,1,correct,path,3,path3,bolt
161,14,domino,0.600288094603,left,1,correct,decision,1,decision1,bolt
162,14,ambulance,0.200253501476,right,1,correct,arm1,1,arm11,bolt
163,14,trunk,0.0835845558322,left,1,correct,arm1,2,arm12,bolt
164,14,peach,0.883611179772,left,1,correct,arm1,3,arm13,bolt
165,14,garlic,0.666970940889,right,1,correct,decision,2,decision2,bolt
166,14,mug,0.283616492525,right,1,correct,arm2,1,arm21,bolt
167,14,branch,0.066915278032,left,1,correct,arm2,2,arm22,bolt
168,14,bolt,0.0168950685766,right,1,correct,arm2,3,arm23,bolt
169,15,bolt,0.183642482618,space,1,correct,target,NaN,targetNaN,bolt
170,15,coffeepot,0.216925495944,left,1,correct,path,1,path1,bolt
171,15,mosquito,0.0335809485987,left,1,correct,path,2,path2,bolt
172,15,canoe,0.0502315110061,right,1,correct,path,3,path3,bolt
173,15,domino,0.450286630541,right,1,correct,decision,1,decision1,bolt
174,15,ambulance,0.350277604943,right,1,correct,arm1,1,arm11,bolt
175,15,trunk,0.0836201751954,left,1,correct,arm1,2,arm12,bolt
176,15,peach,0.0335685723112,left,1,correct,arm1,3,arm13,bolt
177,15,garlic,0.800334822387,right,1,correct,decision,2,decision2,bolt
178,15,mug,0.283618303656,right,1,correct,arm2,1,arm21,bolt
179,15,branch,0.066901392478,left,1,correct,arm2,2,arm22,bolt
180,15,bolt,0.0667383885011,right,1,correct,arm2,3,arm23,bolt
181,16,bolt,0.200336814683,space,1,correct,target,NaN,targetNaN,bolt
182,16,coffeepot,0.150240536663,left,1,correct,path,1,path1,bolt
183,16,mosquito,0.0502269831486,left,1,correct,path,2,path2,bolt
184,16,canoe,0.050265319238,right,1,correct,path,3,path3,bolt
185,16,domino,0.716774717264,left,1,correct,decision,1,decision1,bolt
186,16,ambulance,0.266745874542,right,1,correct,arm1,1,arm11,bolt
187,16,trunk,0.066975348047,left,1,correct,arm1,2,arm12,bolt
188,16,peach,0.050249018881,left,1,correct,arm1,3,arm13,bolt
189,16,garlic,0.866896925028,left,1,correct,decision,2,decision2,bolt
190,16,mug,0.250235978572,right,1,correct,arm2,1,arm21,bolt
191,16,branch,0.150357959967,left,1,correct,arm2,2,arm22,bolt
192,16,bolt,0.0500467731035,right,1,correct,arm2,3,arm23,bolt
193,17,lion,0.200319306809,space,1,correct,target,NaN,targetNaN,lion
194,17,coffeepot,0.233576964005,left,1,correct,path,1,path1,lion
195,17,mosquito,0.0336986737093,left,1,correct,path,2,path2,lion
196,17,canoe,0.0335549886222,right,1,correct,path,3,path3,lion
197,17,goose,0.350366653467,right,1,correct,decision,1,decision1,lion
198,17,sailor,0.38369222905,left,1,correct,arm1,1,arm11,lion
199,17,cooker,0.0668986757519,right,1,correct,arm1,2,arm12,lion
200,17,tooth,0.0835800279165,left,1,correct,arm1,3,arm13,lion
201,17,crutches,0.316983724653,left,1,correct,decision,2,decision2,lion
202,17,stapler,0.683571092843,left,1,correct,arm2,1,arm21,lion
203,17,rose,0.0335619314574,right,1,correct,arm2,2,arm22,lion
204,17,lion,0.133576088643,left,1,correct,arm2,3,arm23,lion
205,18,lion,0.316990969237,space,1,correct,target,NaN,targetNaN,lion
206,18,coffeepot,0.133589974197,left,1,correct,path,1,path1,lion
207,18,mosquito,0.0169210284366,left,1,correct,path,2,path2,lion
208,18,canoe,0.0669201077544,right,1,correct,path,3,path3,lion
209,18,goose,0.400313813007,left,1,correct,decision,1,decision1,lion
210,18,sailor,0.416911550099,left,1,correct,arm1,1,arm11,lion
211,18,cooker,0.0169168023858,right,1,correct,arm1,2,arm12,lion
212,18,tooth,0.100257455837,left,1,correct,arm1,3,arm13,lion
213,18,crutches,0.583690357453,right,1,correct,decision,2,decision2,lion
214,18,stapler,0.60035057948,left,1,correct,arm2,1,arm21,lion
215,18,rose,0.0835664442275,right,1,correct,arm2,2,arm22,lion
216,18,lion,0.0835646330379,left,1,correct,arm2,3,arm23,lion
217,19,bolt,0.183959434973,space,1,correct,target,NaN,targetNaN,bolt
218,19,coffeepot,0.183657575573,left,1,correct,path,1,path1,bolt
219,19,mosquito,0.0333729674458,left,1,correct,path,2,path2,bolt
220,19,canoe,0.000318461621646,right,1,correct,path,3,path3,bolt
221,19,domino,0.600251569587,left,1,correct,decision,1,decision1,bolt
222,19,ambulance,0.0669973837794,right,1,correct,arm1,1,arm11,bolt
223,19,trunk,0.100422271062,left,1,correct,arm1,2,arm12,bolt
224,19,peach,0.0335709872306,left,1,correct,arm1,3,arm13,bolt
225,19,garlic,0.433477290091,right,1,correct,decision,2,decision2,bolt
226,19,mug,0.366945977148,right,1,correct,arm2,1,arm21,bolt
227,19,branch,0.0502571690595,left,1,correct,arm2,2,arm22,bolt
228,19,bolt,0.0676321940264,right,1,correct,arm2,3,arm23,bolt
229,20,lion,0.200416807435,space,1,correct,target,NaN,targetNaN,lion
230,20,coffeepot,0.0502653192962,left,1,correct,path,1,path1,lion
231,20,mosquito,0.0172041725018,left,1,correct,path,2,path2,lion
232,20,canoe,0.0172832597164,right,1,correct,path,3,path3,lion
233,20,goose,0.38368619181,left,1,correct,decision,1,decision1,lion
234,20,sailor,0.317573859706,left,1,correct,arm1,1,arm11,lion
235,20,cooker,0.0170610912028,right,1,correct,arm1,2,arm12,lion
236,20,tooth,0.133800068288,left,1,correct,arm1,3,arm13,lion
237,20,crutches,0.700280819729,left,1,correct,decision,2,decision2,lion
238,20,stapler,0.616976389487,left,1,correct,arm2,1,arm21,lion
239,20,rose,0.0336552059744,right,1,correct,arm2,2,arm22,lion
240,20,lion,0.0669427472749,left,1,correct,arm2,3,arm23,lion
241,21,bolt,0.317045303993,space,1,correct,target,NaN,targetNaN,bolt
242,21,coffeepot,0.100711754232,left,1,correct,path,1,path1,bolt
243,21,mosquito,0.0171896832762,left,1,correct,path,2,path2,bolt
244,21,canoe,0.0668832809315,right,1,correct,path,3,path3,bolt
245,21,domino,0.417074554134,right,1,correct,decision,1,decision1,bolt
246,21,ambulance,0.133594502055,right,1,correct,arm1,1,arm11,bolt
247,21,trunk,0.100344995037,left,1,correct,arm1,2,arm12,bolt
248,21,peach,0.0668941478943,left,1,correct,arm1,3,arm13,bolt
249,21,garlic,1.0670010061,left,1,correct,decision,2,decision2,bolt
250,21,mug,0.0339775917237,right,1,correct,arm2,1,arm21,bolt
251,21,branch,0.0840201388928,left,1,correct,arm2,2,arm22,bolt
252,21,bolt,0.0337943631457,right,1,correct,arm2,3,arm23,bolt
253,22,bolt,0.250574362872,space,1,correct,target,NaN,targetNaN,bolt
254,22,coffeepot,0.183609278058,left,1,correct,path,1,path1,bolt
255,22,mosquito,0.0338351141545,left,1,correct,path,2,path2,bolt
256,22,canoe,0.0167281402973,right,1,correct,path,3,path3,bolt
257,22,domino,0.450517251156,right,1,correct,decision,1,decision1,bolt
258,22,ambulance,0.466953493422,right,1,correct,arm1,1,arm11,bolt
259,22,trunk,0.000296124024317,left,1,correct,arm1,2,arm12,bolt
260,22,peach,0.0669403323554,left,1,correct,arm1,3,arm13,bolt
261,22,garlic,0.550387119525,right,1,correct,decision,2,decision2,bolt
262,22,mug,0.250737970637,right,1,correct,arm2,1,arm21,bolt
263,22,branch,0.050242076104,left,1,correct,arm2,2,arm22,bolt
264,22,bolt,0.000254165614024,right,1,correct,arm2,3,arm23,bolt
265,23,lion,0.166986788507,space,1,correct,target,NaN,targetNaN,lion
266,23,coffeepot,0.0502402649145,left,1,correct,path,1,path1,lion
267,23,mosquito,0.0172681667609,left,1,correct,path,2,path2,lion
268,23,canoe,0.05033957673,right,1,correct,path,3,path3,lion
269,23,goose,0.316948105232,right,1,correct,decision,1,decision1,lion
270,23,sailor,0.500255825813,left,1,correct,arm1,1,arm11,lion
271,23,cooker,1.18355554709,right,1,correct,arm1,2,arm12,lion
272,23,tooth,0.483729327563,left,1,correct,arm1,3,arm13,lion
273,23,crutches,0.783688184107,left,1,correct,decision,2,decision2,lion
274,23,stapler,0.383620386536,left,1,correct,arm2,1,arm21,lion
275,23,rose,0.0669916484621,right,1,correct,arm2,2,arm22,lion
276,23,lion,0.0669137687655,left,1,correct,arm2,3,arm23,lion
277,24,lion,0.150297588087,space,1,correct,target,NaN,targetNaN,lion
278,24,coffeepot,0.11670607439,left,1,correct,path,1,path1,lion
279,24,mosquito,0.00026080646785,left,1,correct,path,2,path2,lion
280,24,canoe,0.114499482501,right,1,correct,path,3,path3,lion
281,24,goose,0.616953146295,right,1,correct,decision,1,decision1,lion
282,24,sailor,0.350261908257,left,1,correct,arm1,1,arm11,lion
283,24,cooker,0.0669267487247,right,1,correct,arm1,2,arm12,lion
284,24,tooth,0.0505191830453,left,1,correct,arm1,3,arm13,lion
285,24,crutches,0.550340029469,left,1,correct,decision,2,decision2,lion
286,24,stapler,0.50027937087,left,1,correct,arm2,1,arm21,lion
287,24,rose,0.0504560943809,right,1,correct,arm2,2,arm22,lion
288,24,lion,0.0502293980098,left,1,correct,arm2,3,arm23,lion
289,25,lion,0.166980751324,space,1,correct,target,NaN,targetNaN,lion
290,25,coffeepot,0.166997353605,left,1,correct,path,1,path1,lion
291,25,mosquito,0.000242393056396,left,1,correct,path,2,path2,lion
292,25,canoe,0.000244807917625,right,1,correct,path,3,path3,lion
293,25,goose,0.550318295602,right,1,correct,decision,1,decision1,lion
294,25,sailor,0.216746493359,left,1,correct,arm1,1,arm11,lion
295,25,cooker,0.0336038898677,right,1,correct,arm1,2,arm12,lion
296,25,tooth,0.0669104483095,left,1,correct,arm1,3,arm13,lion
297,25,crutches,0.467308178137,left,1,correct,decision,2,decision2,lion
298,25,stapler,0.25024050643,left,1,correct,arm2,1,arm21,lion
299,25,rose,0.0336041917326,right,1,correct,arm2,2,arm22,lion
300,25,lion,0.0502447928884,left,1,correct,arm2,3,arm23,lion
301,26,lion,0.167049877113,space,1,correct,target,NaN,targetNaN,lion
302,26,coffeepot,0.0669264468015,left,1,correct,path,1,path1,lion
303,26,mosquito,0.114130006637,left,1,correct,path,2,path2,lion
304,26,canoe,0.0832817908376,right,1,correct,path,3,path3,lion
305,26,goose,0.366901905625,right,1,correct,decision,1,decision1,lion
306,26,sailor,0.116899566259,left,1,correct,arm1,1,arm11,lion
307,26,cooker,0.0169080485357,right,1,correct,arm1,2,arm12,lion
308,26,tooth,0.0335821560002,left,1,correct,arm1,3,arm13,lion
309,26,crutches,0.350307790912,left,1,correct,decision,2,decision2,lion
310,26,stapler,0.0503109000856,left,1,correct,arm2,1,arm21,lion
311,26,rose,0.000251147022936,right,1,correct,arm2,2,arm22,lion
312,26,lion,0.000316952355206,left,1,correct,arm2,3,arm23,lion
313,27,lion,0.166992825747,space,1,correct,target,NaN,targetNaN,lion
314,27,coffeepot,0.0503305208986,left,1,correct,path,1,path1,lion
315,27,mosquito,0.000248430238571,left,1,correct,path,2,path2,lion
316,27,canoe,0.113826034183,right,1,correct,path,3,path3,lion
317,27,goose,0.383430516929,right,1,correct,decision,1,decision1,lion
318,27,sailor,0.117443818657,left,1,correct,arm1,1,arm11,lion
319,27,cooker,0.0169128782582,right,1,correct,arm1,2,arm12,lion
320,27,tooth,0.0502668285626,left,1,correct,arm1,3,arm13,lion
321,27,crutches,0.250338610727,left,1,correct,decision,2,decision2,lion
322,27,stapler,0.0502638100297,left,1,correct,arm2,1,arm21,lion
323,27,rose,0.566924182931,right,1,correct,arm2,2,arm22,lion
324,27,lion,0.0502586783841,left,1,correct,arm2,3,arm23,lion
325,28,bolt,0.217176341102,space,1,correct,target,NaN,targetNaN,bolt
326,28,coffeepot,0.0168259427883,left,1,correct,path,1,path1,bolt
327,28,mosquito,0.000316046760418,left,1,correct,path,2,path2,bolt
328,28,canoe,0.00023907260038,right,1,correct,path,3,path3,bolt
329,28,domino,0.333672623266,right,1,correct,decision,1,decision1,bolt
330,28,ambulance,0.16691011627,right,1,correct,arm1,1,arm11,bolt
331,28,trunk,0.0335459328489,left,1,correct,arm1,2,arm12,bolt
332,28,peach,0.266972269048,left,1,correct,arm1,3,arm13,bolt
333,28,garlic,0.416967092198,left,1,correct,decision,2,decision2,bolt
334,28,mug,0.233616205689,right,1,correct,arm2,1,arm21,bolt
335,28,branch,0.000240883789957,left,1,correct,arm2,2,arm22,bolt
336,28,bolt,0.0502798085217,right,1,correct,arm2,3,arm23,bolt
337,29,lion,0.216980736237,space,1,correct,target,NaN,targetNaN,lion
338,29,coffeepot,0.0669201077544,left,1,correct,path,1,path1,lion
339,29,mosquito,0.000241487519816,left,1,correct,path,2,path2,lion
340,29,canoe,0.113821808191,right,1,correct,path,3,path3,lion
341,29,goose,0.367016008531,right,1,correct,decision,1,decision1,lion
342,29,sailor,0.383581748465,left,1,correct,arm1,1,arm11,lion
343,29,cooker,0.650267854915,right,1,correct,arm1,2,arm12,lion
344,29,tooth,0.133726112719,left,1,correct,arm1,3,arm13,lion
345,29,crutches,0.516976721468,right,1,correct,decision,2,decision2,lion
346,29,stapler,0.216917043901,left,1,correct,arm2,1,arm21,lion
347,29,rose,0.0668917329749,right,1,correct,arm2,2,arm22,lion
348,29,lion,0.0835661423625,left,1,correct,arm2,3,arm23,lion
349,30,lion,0.30032863433,space,1,correct,target,NaN,targetNaN,lion
350,30,coffeepot,0.183317078161,left,1,correct,path,1,path1,lion
351,30,mosquito,0.000289784977213,left,1,correct,path,2,path2,lion
352,30,canoe,0.016836507828,right,1,correct,path,3,path3,lion
353,30,goose,0.350416158384,right,1,correct,decision,1,decision1,lion
354,30,sailor,0.167015163286,left,1,correct,arm1,1,arm11,lion
355,30,cooker,0.0170819194755,right,1,correct,arm1,2,arm12,lion
356,30,tooth,0.066905014799,left,1,correct,arm1,3,arm13,lion
357,30,crutches,0.416907324048,left,1,correct,decision,2,decision2,lion
358,30,stapler,0.166959017457,left,1,correct,arm2,1,arm21,lion
359,30,rose,0.050298825663,right,1,correct,arm2,2,arm22,lion
360,30,lion,0.0502466039616,left,1,correct,arm2,3,arm23,lion
361,31,lion,0.200424655748,space,1,correct,target,NaN,targetNaN,lion
362,31,coffeepot,0.067001609772,left,1,correct,path,1,path1,lion
363,31,mosquito,0.0169451772235,left,1,correct,path,2,path2,lion
364,31,canoe,0.000257184205111,right,1,correct,path,3,path3,lion
365,31,goose,0.500298086088,left,1,correct,decision,1,decision1,lion
366,31,sailor,0.33434275107,left,1,correct,arm1,1,arm11,lion
367,31,cooker,0.0169539311319,right,1,correct,arm1,2,arm12,lion
368,31,tooth,0.0837125441176,left,1,correct,arm1,3,arm13,lion
369,31,crutches,0.683646859543,right,1,correct,decision,2,decision2,lion
370,31,stapler,0.100298508711,left,1,correct,arm2,1,arm21,lion
371,31,rose,0.03356615745,right,1,correct,arm2,2,arm22,lion
372,31,lion,0.100361899182,left,1,correct,arm2,3,arm23,lion
373,32,bolt,0.15033199999,space,1,correct,target,NaN,targetNaN,bolt
374,32,coffeepot,0.0335863819928,left,1,correct,path,1,path1,bolt
375,32,mosquito,0.000288577575702,left,1,correct,path,2,path2,bolt
376,32,canoe,0.066944860213,right,1,correct,path,3,path3,bolt
377,32,domino,0.266978608153,right,1,correct,decision,1,decision1,bolt
378,32,ambulance,0.200338625815,right,1,correct,arm1,1,arm11,bolt
379,32,trunk,0.0507265604101,left,1,correct,arm1,2,arm12,bolt
380,32,peach,0.0837813680409,left,1,correct,arm1,3,arm13,bolt
381,32,garlic,0.533698220912,right,1,correct,decision,2,decision2,bolt
382,32,mug,0.366941751097,right,1,correct,arm2,1,arm21,bolt
383,32,branch,0.0669333896367,left,1,correct,arm2,2,arm22,bolt
384,32,bolt,0.166908606945,right,1,correct,arm2,3,arm23,bolt
385,33,lion,0.183733040409,space,1,correct,target,NaN,targetNaN,lion
386,33,coffeepot,0.150692420139,left,1,correct,path,1,path1,lion
387,33,mosquito,0.0173620450078,left,1,correct,path,2,path2,lion
388,33,canoe,0.000300048210192,right,1,correct,path,3,path3,lion
389,33,goose,0.417047990486,right,1,correct,decision,1,decision1,lion
390,33,sailor,0.167048367846,left,1,correct,arm1,1,arm11,lion
391,33,cooker,0.0170776934247,right,1,correct,arm1,2,arm12,lion
392,33,tooth,0.0502825253061,left,1,correct,arm1,3,arm13,lion
393,33,crutches,0.300248339714,right,1,correct,decision,2,decision2,lion
394,33,stapler,0.0668410205981,left,1,correct,arm2,1,arm21,lion
395,33,rose,0.0670366255217,right,1,correct,arm2,2,arm22,lion
396,33,lion,0.350217836851,left,1,correct,arm2,3,arm23,lion
397,34,bolt,0.200481707172,space,1,correct,target,NaN,targetNaN,bolt
398,34,coffeepot,0.1003003199,left,1,correct,path,1,path1,bolt
399,34,mosquito,0.000244506052695,left,1,correct,path,2,path2,bolt
400,34,canoe,0.0335824579233,right,1,correct,path,3,path3,bolt
401,34,domino,0.250301180175,left,1,correct,decision,1,decision1,bolt
402,34,ambulance,0.133897870721,right,1,correct,arm1,1,arm11,bolt
403,34,trunk,0.0836672652513,left,1,correct,arm1,2,arm12,bolt
404,34,peach,0.0169575534528,left,1,correct,arm1,3,arm13,bolt
405,34,garlic,0.433585959428,right,1,correct,decision,2,decision2,bolt
406,34,mug,0.33357814129,right,1,correct,arm2,1,arm21,bolt
407,34,branch,0.0169720427366,left,1,correct,arm2,2,arm22,bolt
408,34,bolt,0.0336165680201,right,1,correct,arm2,3,arm23,bolt
409,35,lion,0.13362016005,space,-1,miss,target,NaN,targetNaN,lion
410,35,coffeepot,0.0668917329749,left,-1,miss,path,1,path1,lion
411,35,mosquito,0.0169862300972,left,-1,miss,path,2,path2,lion
412,35,canoe,0.000245411647484,right,-1,miss,path,3,path3,lion
413,35,goose,0.400315020408,left,-1,miss,decision,1,decision1,lion
414,35,sailor,0.333595950971,left,-1,miss,arm1,1,arm11,lion
415,35,cooker,0.000300048210192,right,-1,miss,arm1,2,arm12,lion
416,35,tooth,0.0335676667164,left,-1,miss,arm1,3,arm13,lion
417,35,garlic,1.85033541103,left,-1,miss,decision,2,decision2,lion
418,35,mug,0.550269696279,right,-1,miss,arm2,1,arm21,lion
419,35,branch,0.000244807917625,left,-1,miss,arm2,2,arm22,lion
420,35,bolt,0.0169225377613,right,-1,miss,arm2,3,arm23,lion
421,36,bolt,0.150296682492,space,1,correct,target,NaN,targetNaN,bolt
422,36,coffeepot,0.28358721215,left,1,correct,path,1,path1,bolt
423,36,mosquito,0.114203962148,left,1,correct,path,2,path2,bolt
424,36,canoe,0.114469900262,right,1,correct,path,3,path3,bolt
425,36,domino,0.200315382681,right,1,correct,decision,1,decision1,bolt
426,36,ambulance,0.167007918702,right,1,correct,arm1,1,arm11,bolt
427,36,trunk,0.0172093041474,left,1,correct,arm1,2,arm12,bolt
428,36,peach,0.0335875895107,left,1,correct,arm1,3,arm13,bolt
429,36,garlic,0.816957613803,left,1,correct,decision,2,decision2,bolt
430,36,mug,0.133544091543,right,1,correct,arm2,1,arm21,bolt
431,36,branch,0.000496256805491,left,1,correct,arm2,2,arm22,bolt
432,36,bolt,0.000511953432579,right,1,correct,arm2,3,arm23,bolt
433,37,bolt,0.183638860297,space,1,correct,target,NaN,targetNaN,bolt
434,37,coffeepot,0.100492604251,left,1,correct,path,1,path1,bolt
435,37,mosquito,0.114005338692,left,1,correct,path,2,path2,bolt
436,37,canoe,0.114574947336,right,1,correct,path,3,path3,bolt
437,37,domino,0.250413773698,left,1,correct,decision,1,decision1,bolt
438,37,ambulance,0.150318718224,right,1,correct,arm1,1,arm11,bolt
439,37,trunk,0.0169657036313,left,1,correct,arm1,2,arm12,bolt
440,37,peach,0.0339407649008,left,1,correct,arm1,3,arm13,bolt
441,37,garlic,0.417009352474,right,1,correct,decision,2,decision2,bolt
442,37,mug,0.183832050243,right,1,correct,arm2,1,arm21,bolt
443,37,branch,0.0335800430039,left,1,correct,arm2,2,arm22,bolt
444,37,bolt,1.50041882985,right,1,correct,arm2,3,arm23,bolt
445,38,bolt,0.250378758006,space,1,correct,target,NaN,targetNaN,bolt
446,38,coffeepot,0.0836760191596,left,1,correct,path,1,path1,bolt
447,38,mosquito,0.0169273675419,left,1,correct,path,2,path2,bolt
448,38,canoe,0.0168923518504,right,1,correct,path,3,path3,bolt
449,38,domino,0.25035883527,right,1,correct,decision,1,decision1,bolt
450,38,ambulance,0.117482154805,right,1,correct,arm1,1,arm11,bolt
451,38,trunk,0.0502463021548,left,1,correct,arm1,2,arm12,bolt
452,38,peach,0.067081904388,left,1,correct,arm1,3,arm13,bolt
453,38,garlic,0.883682720421,left,1,correct,decision,2,decision2,bolt
454,38,mug,0.133620763838,right,1,correct,arm2,1,arm21,bolt
455,38,branch,0.000348043860868,left,1,correct,arm2,2,arm22,bolt
456,38,bolt,0.700267537963,right,1,correct,arm2,3,arm23,bolt
457,39,bolt,0.367195011117,space,1,correct,target,NaN,targetNaN,bolt
458,39,coffeepot,0.0838480790262,left,1,correct,path,1,path1,bolt
459,39,mosquito,0.113359661482,left,1,correct,path,2,path2,bolt
460,39,canoe,0.0337300671381,right,1,correct,path,3,path3,bolt
461,39,domino,0.250325027097,left,1,correct,decision,1,decision1,bolt
462,39,ambulance,0.133458967204,right,1,correct,arm1,1,arm11,bolt
463,39,trunk,0.033619284688,left,1,correct,arm1,2,arm12,bolt
464,39,peach,0.033619284688,left,1,correct,arm1,3,arm13,bolt
465,39,garlic,0.450285724946,left,1,correct,decision,2,decision2,bolt
466,39,mug,0.116995859426,right,1,correct,arm2,1,arm21,bolt
467,39,branch,0.0335549886222,left,1,correct,arm2,2,arm22,bolt
468,39,bolt,1.46723935427,right,1,correct,arm2,3,arm23,bolt
469,40,lion,0.300331652863,space,1,correct,target,NaN,targetNaN,lion
470,40,coffeepot,0.21709453722,left,1,correct,path,1,path1,lion
471,40,mosquito,0.0668884125189,left,1,correct,path,2,path2,lion
472,40,canoe,0.0169171042508,right,1,correct,path,3,path3,lion
473,40,goose,0.450351228472,right,1,correct,decision,1,decision1,lion
474,40,sailor,0.366974653734,left,1,correct,arm1,1,arm11,lion
475,40,cooker,0.533643886272,right,1,correct,arm1,2,arm12,lion
476,40,tooth,0.100284321292,left,1,correct,arm1,3,arm13,lion
477,40,crutches,0.966926778841,left,1,correct,decision,2,decision2,lion
478,40,stapler,0.650225594582,left,1,correct,arm2,1,arm21,lion
479,40,rose,0.0336223032791,right,1,correct,arm2,2,arm22,lion
480,40,lion,0.11723100784,left,1,correct,arm2,3,arm23,lion
481,41,bolt,0.200377867557,space,1,correct,target,NaN,targetNaN,bolt
482,41,coffeepot,0.0503957225592,left,1,correct,path,1,path1,bolt
483,41,mosquito,0.000349251320586,left,1,correct,path,2,path2,bolt
484,41,canoe,0.000406604551245,right,1,correct,path,3,path3,bolt
485,41,domino,0.300327124947,left,1,correct,decision,1,decision1,bolt
486,41,ambulance,0.0336778454366,right,1,correct,arm1,1,arm11,bolt
487,41,trunk,0.0502942977473,left,1,correct,arm1,2,arm12,bolt
488,41,peach,0.0341873840662,left,1,correct,arm1,3,arm13,bolt
489,41,garlic,0.450282102684,left,1,correct,decision,2,decision2,bolt
490,41,mug,0.0168962759781,right,1,correct,arm2,1,arm21,bolt
491,41,branch,0.0502496226109,left,1,correct,arm2,2,arm22,bolt
492,41,bolt,0.0345755751478,right,1,correct,arm2,3,arm23,bolt
493,42,lion,0.267008492199,space,1,correct,target,NaN,targetNaN,lion
494,42,coffeepot,0.0336582245654,left,1,correct,path,1,path1,lion
495,42,mosquito,0.000298840750474,left,1,correct,path,2,path2,lion
496,42,canoe,0.114155060961,right,1,correct,path,3,path3,lion
497,42,goose,0.300110390002,left,1,correct,decision,1,decision1,lion
498,42,sailor,0.283800023026,left,1,correct,arm1,1,arm11,lion
499,42,cooker,0.0336859956151,right,1,correct,arm1,2,arm12,lion
500,42,tooth,0.0835975357331,left,1,correct,arm1,3,arm13,lion
501,42,crutches,0.466982471931,right,1,correct,decision,2,decision2,lion
502,42,stapler,0.167163678096,left,1,correct,arm2,1,arm21,lion
503,42,rose,0.0502795066568,right,1,correct,arm2,2,arm22,lion
504,42,lion,0.0669327858486,left,1,correct,arm2,3,arm23,lion
505,43,bolt,0.13368656917,space,1,correct,target,NaN,targetNaN,bolt
506,43,coffeepot,0.0337234262261,left,1,correct,path,1,path1,bolt
507,43,mosquito,0.000656845979393,left,1,correct,path,2,path2,bolt
508,43,canoe,0.0844825874083,right,1,correct,path,3,path3,bolt
509,43,domino,0.267336009594,right,1,correct,decision,1,decision1,bolt
510,43,ambulance,0.216924288543,right,1,correct,arm1,1,arm11,bolt
511,43,trunk,0.266931216174,left,1,correct,arm1,2,arm12,bolt
512,43,peach,0.03368629748,left,1,correct,arm1,3,arm13,bolt
513,43,garlic,1.01755855547,right,1,correct,decision,2,decision2,bolt
514,43,mug,0.267783968884,right,1,correct,arm2,1,arm21,bolt
515,43,branch,0.21695779491,left,1,correct,arm2,2,arm22,bolt
516,43,bolt,0.666987543169,right,1,correct,arm2,3,arm23,bolt
517,44,lion,0.117187540105,space,1,correct,target,NaN,targetNaN,lion
518,44,coffeepot,0.0335770244128,left,1,correct,path,1,path1,lion
519,44,mosquito,0.0500579419313,left,1,correct,path,2,path2,lion
520,44,canoe,0.0336201902828,right,1,correct,path,3,path3,lion
521,44,goose,0.433699760411,right,1,correct,decision,1,decision1,lion
522,44,sailor,0.250274012797,left,1,correct,arm1,1,arm11,lion
523,44,cooker,0.0836144398781,right,1,correct,arm1,2,arm12,lion
524,44,tooth,0.050282827171,left,1,correct,arm1,3,arm13,lion
525,44,crutches,0.650337584433,left,1,correct,decision,2,decision2,lion
526,44,stapler,0.0836805470753,left,1,correct,arm2,1,arm21,lion
527,44,rose,0.0335734020337,right,1,correct,arm2,2,arm22,lion
528,44,lion,0.0836908103083,left,1,correct,arm2,3,arm23,lion
529,45,bolt,0.500259146269,space,1,correct,target,NaN,targetNaN,bolt
530,45,coffeepot,0.150240536663,left,1,correct,path,1,path1,bolt
531,45,mosquito,0.000584399735089,left,1,correct,path,2,path2,bolt
532,45,canoe,0.0506876205327,right,1,correct,path,3,path3,bolt
533,45,domino,0.533655055042,left,1,correct,decision,1,decision1,bolt
534,45,ambulance,0.116971106909,right,1,correct,arm1,1,arm11,bolt
535,45,trunk,0.0672642274294,left,1,correct,arm1,2,arm12,bolt
536,45,peach,0.0338927692501,left,1,correct,arm1,3,arm13,bolt
537,45,garlic,0.333669000946,left,1,correct,decision,2,decision2,bolt
538,45,mug,0.066945464001,right,1,correct,arm2,1,arm21,bolt
539,45,branch,0.0502493207459,left,1,correct,arm2,2,arm22,bolt
540,45,bolt,0.0170248681097,right,1,correct,arm2,3,arm23,bolt
541,46,lion,0.200422844558,space,1,correct,target,NaN,targetNaN,lion
542,46,coffeepot,0.150237819878,left,1,correct,path,1,path1,lion
543,46,mosquito,0.0169267638121,left,1,correct,path,2,path2,lion
544,46,canoe,0.0335996638751,right,1,correct,path,3,path3,lion
545,46,goose,0.316964405647,left,1,correct,decision,1,decision1,lion
546,46,sailor,0.316926371364,left,1,correct,arm1,1,arm11,lion
547,46,cooker,0.0669463695958,right,1,correct,arm1,2,arm12,lion
548,46,tooth,0.10022576066,left,1,correct,arm1,3,arm13,lion
549,46,crutches,0.866917753301,right,1,correct,decision,2,decision2,lion
550,46,stapler,0.450385640434,left,1,correct,arm2,1,arm21,lion
551,46,rose,0.250529385812,right,1,correct,arm2,2,arm22,lion
552,46,lion,0.0172201711102,left,1,correct,arm2,3,arm23,lion
553,47,lion,0.117214103695,space,1,correct,target,NaN,targetNaN,lion
554,47,coffeepot,0.066904712934,left,1,correct,path,1,path1,lion
555,47,mosquito,0.000242694921326,left,1,correct,path,2,path2,lion
556,47,canoe,0.0336642617476,right,1,correct,path,3,path3,lion
557,47,goose,0.283684410853,left,1,correct,decision,1,decision1,lion
558,47,sailor,0.166983166186,left,1,correct,arm1,1,arm11,lion
559,47,cooker,0.0336078140535,right,1,correct,arm1,2,arm12,lion
560,47,tooth,0.100270133931,left,1,correct,arm1,3,arm13,lion
561,47,crutches,0.650426934764,right,1,correct,decision,2,decision2,lion
562,47,stapler,0.183586638654,left,1,correct,arm2,1,arm21,lion
563,47,rose,0.0505170699907,right,1,correct,arm2,2,arm22,lion
564,47,lion,0.0669596513617,left,1,correct,arm2,3,arm23,lion
565,48,bolt,0.133383502369,space,1,correct,target,NaN,targetNaN,bolt
566,48,coffeepot,0.0335939284996,left,1,correct,path,1,path1,bolt
567,48,mosquito,0.000260504661128,left,1,correct,path,2,path2,bolt
568,48,canoe,0.000751931685954,right,1,correct,path,3,path3,bolt
569,48,domino,0.716925948742,right,1,correct,decision,1,decision1,bolt
570,48,ambulance,0.566994817986,right,1,correct,arm1,1,arm11,bolt
571,48,trunk,0.000264428847004,left,1,correct,arm1,2,arm12,bolt
572,48,peach,0.0502384537831,left,1,correct,arm1,3,arm13,bolt
573,48,garlic,1.16732788965,right,1,correct,decision,2,decision2,bolt
574,48,mug,0.400223557081,right,1,correct,arm2,1,arm21,bolt
575,48,branch,0.0836141380132,left,1,correct,arm2,2,arm22,bolt
576,48,bolt,0.00023756333394,right,1,correct,arm2,3,arm23,bolt
577,49,bolt,0.216997338517,space,1,correct,target,NaN,targetNaN,bolt
578,49,coffeepot,0.0335558942752,left,1,correct,path,1,path1,bolt
579,49,mosquito,0.000503501447383,left,1,correct,path,2,path2,bolt
580,49,canoe,0.0169687222224,right,1,correct,path,3,path3,bolt
581,49,domino,0.216996734787,right,1,correct,decision,1,decision1,bolt
582,49,ambulance,0.0836265142425,right,1,correct,arm1,1,arm11,bolt
583,49,trunk,0.0503000331228,left,1,correct,arm1,2,arm12,bolt
584,49,peach,0.0502656211611,left,1,correct,arm1,3,arm13,bolt
585,49,garlic,0.383618273481,right,1,correct,decision,2,decision2,bolt
586,49,mug,0.166923096229,right,1,correct,arm2,1,arm21,bolt
587,49,branch,0.0502396612428,left,1,correct,arm2,2,arm22,bolt
588,49,bolt,1.21691432717,right,1,correct,arm2,3,arm23,bolt
589,50,lion,0.200326853315,space,1,correct,target,NaN,targetNaN,lion
590,50,coffeepot,0.150054893165,left,1,correct,path,1,path1,lion
591,50,mosquito,0.113350001979,left,1,correct,path,2,path2,lion
592,50,canoe,0.113110023842,right,1,correct,path,3,path3,lion
593,50,goose,0.633623933361,right,1,correct,decision,1,decision1,lion
594,50,sailor,0.166990410828,left,1,correct,arm1,1,arm11,lion
595,50,cooker,0.0169916635496,right,1,correct,arm1,2,arm12,lion
596,50,tooth,0.100255040976,left,1,correct,arm1,3,arm13,lion
597,50,crutches,0.433692515828,right,1,correct,decision,2,decision2,lion
598,50,stapler,0.33361013839,left,1,correct,arm2,1,arm21,lion
599,50,rose,0.00025778793497,right,1,correct,arm2,2,arm22,lion
600,50,lion,0.0669273524545,left,1,correct,arm2,3,arm23,lion
