pic_index,trial_num,pic_name,rt,resp,feedback_code,feedback,segment,segment_index,pic_type,trial_target
1,1,arc,5.55024524569,space,1,correct,target,NaN,targetNaN,arc
2,1,trophy,9.1501264337,left,1,correct,path,1,path1,arc
3,1,astronaut,2.63355571311,right,1,correct,path,2,path2,arc
4,1,robot,1.033408285,right,1,correct,path,3,path3,arc
5,1,watch,5.6002038758,right,1,correct,decision,1,decision1,arc
6,1,clover,1.35023836326,left,1,correct,arm1,1,arm11,arc
7,1,radio,0.816938596661,right,1,correct,arm1,2,arm12,arc
8,1,wing,2.46690881823,left,1,correct,arm1,3,arm13,arc
9,1,holly,3.08338231011,right,1,correct,decision,2,decision2,arc
10,1,match,3.85020591342,right,1,correct,arm2,1,arm21,arc
11,1,baby,1.01693491405,left,1,correct,arm2,2,arm22,arc
12,1,arc,1.03364886693,left,1,correct,arm2,3,arm23,arc
13,2,arc,2.40102469176,space,1,correct,target,NaN,targetNaN,arc
14,2,trophy,1.06721925037,left,1,correct,path,1,path1,arc
15,2,astronaut,2.11693428014,right,1,correct,path,2,path2,arc
16,2,robot,0.433577507385,right,1,correct,path,3,path3,arc
17,2,watch,3.08360025252,left,1,correct,decision,1,decision1,arc
18,2,clover,1.53359770181,left,1,correct,arm1,1,arm11,arc
19,2,radio,1.28357694892,right,1,correct,arm1,2,arm12,arc
20,2,wing,0.916917738155,left,1,correct,arm1,3,arm13,arc
21,2,holly,1.6336357058,left,1,correct,decision,2,decision2,arc
22,2,match,1.60027843504,right,1,correct,arm2,1,arm21,arc
23,2,baby,1.7170669171,left,1,correct,arm2,2,arm22,arc
24,2,arc,0.616948316572,left,1,correct,arm2,3,arm23,arc
25,3,beaver,1.73363386455,space,-1,miss,target,NaN,targetNaN,beaver
26,3,trophy,0.966934627271,left,-1,miss,path,1,path1,beaver
27,3,astronaut,0.483600131702,right,-1,miss,path,2,path2,beaver
28,3,robot,0.616918432526,right,-1,miss,path,3,path3,beaver
29,3,watch,0.716918402235,left,-1,miss,decision,1,decision1,beaver
30,3,clover,3.96688814089,left,-1,miss,arm1,1,arm11,beaver
31,3,radio,0.817028248915,right,-1,miss,arm1,2,arm12,beaver
32,3,wing,1.11702272482,left,-1,miss,arm1,3,arm13,beaver
33,3,holly,0.683681271505,left,-1,miss,decision,2,decision2,beaver
34,3,match,1.53360766312,right,-1,miss,arm2,1,arm21,beaver
35,3,baby,0.483654768323,left,-1,miss,arm2,2,arm22,beaver
36,3,arc,0.516906992067,left,-1,miss,arm2,3,arm23,beaver
37,4,arc,4.83364771982,space,1,correct,target,NaN,targetNaN,arc
38,4,trophy,0.783689089702,left,1,correct,path,1,path1,arc
39,4,astronaut,0.366889227531,right,1,correct,path,2,path2,arc
40,4,robot,0.533590155188,right,1,correct,path,3,path3,arc
41,4,watch,3.43364391639,right,1,correct,decision,1,decision1,arc
42,4,clover,2.98354534421,left,1,correct,arm1,1,arm11,arc
43,4,radio,2.20023146574,right,1,correct,arm1,2,arm12,arc
44,4,wing,1.81690509035,left,1,correct,arm1,3,arm13,arc
45,4,holly,3.2002242211,right,1,correct,decision,2,decision2,arc
46,4,match,2.61700265121,right,1,correct,arm2,1,arm21,arc
47,4,baby,0.43362097512,left,1,correct,arm2,2,arm22,arc
48,4,arc,0.316835813574,left,1,correct,arm2,3,arm23,arc
49,5,beaver,0.733610017574,space,1,correct,target,NaN,targetNaN,beaver
50,5,trophy,1.61719674687,left,1,correct,path,1,path1,beaver
51,5,astronaut,0.200280970777,right,1,correct,path,2,path2,beaver
52,5,robot,0.250282464898,right,1,correct,path,3,path3,beaver
53,5,pigeon,0.916851932881,left,1,correct,decision,1,decision1,beaver
54,5,bus,2.30046688591,right,1,correct,arm1,1,arm11,beaver
55,5,deer,0.816918070195,left,1,correct,arm1,2,arm12,beaver
56,5,fist,0.833590970258,left,1,correct,arm1,3,arm13,beaver
57,5,stepladder,2.11707977625,left,1,correct,decision,2,decision2,beaver
58,5,calc,1.55029414687,right,1,correct,arm2,1,arm21,beaver
59,5,tongue,0.883577069733,right,1,correct,arm2,2,arm22,beaver
60,5,beaver,0.784091468202,left,1,correct,arm2,3,arm23,beaver
61,6,arc,0.733640203602,space,1,correct,target,NaN,targetNaN,arc
62,6,trophy,1.83358070708,left,1,correct,path,1,path1,arc
63,6,astronaut,0.566942596342,right,1,correct,path,2,path2,arc
64,6,robot,0.283575137844,right,1,correct,path,3,path3,arc
65,6,watch,0.800711542834,right,1,correct,decision,1,decision1,arc
66,6,clover,1.23360473511,left,1,correct,arm1,1,arm11,arc
67,6,radio,0.283673845814,right,1,correct,arm1,2,arm12,arc
68,6,wing,0.41703863279,left,1,correct,arm1,3,arm13,arc
69,6,holly,0.617052759859,left,1,correct,decision,2,decision2,arc
70,6,match,0.90037131717,right,1,correct,arm2,1,arm21,arc
71,6,baby,0.466890706797,left,1,correct,arm2,2,arm22,arc
72,6,arc,0.200274631614,left,1,correct,arm2,3,arm23,arc
73,7,beaver,1.08361534541,space,1,correct,target,NaN,targetNaN,beaver
74,7,trophy,1.90024815861,left,1,correct,path,1,path1,beaver
75,7,astronaut,0.28369135363,right,1,correct,path,2,path2,beaver
76,7,robot,0.166911625536,right,1,correct,path,3,path3,beaver
77,7,pigeon,0.933679384878,right,1,correct,decision,1,decision1,beaver
78,7,bus,0.667040368542,right,1,correct,arm1,1,arm11,beaver
79,7,deer,0.633791465312,left,1,correct,arm1,2,arm12,beaver
80,7,fist,1.15031388844,left,1,correct,arm1,3,arm13,beaver
81,7,stepladder,1.6669027207,left,1,correct,decision,2,decision2,beaver
82,7,calc,0.983621111023,right,1,correct,arm2,1,arm21,beaver
83,7,tongue,0.750288653071,right,1,correct,arm2,2,arm22,beaver
84,7,beaver,0.800760444137,left,1,correct,arm2,3,arm23,beaver
85,8,beaver,1.18366059416,space,1,correct,target,NaN,targetNaN,beaver
86,8,trophy,0.933942908072,left,1,correct,path,1,path1,beaver
87,8,astronaut,0.200238106656,right,1,correct,path,2,path2,beaver
88,8,robot,0.200255312608,right,1,correct,path,3,path3,beaver
89,8,pigeon,0.90028317424,left,1,correct,decision,1,decision1,beaver
90,8,bus,0.600277831312,right,1,correct,arm1,1,arm11,beaver
91,8,deer,0.600332467933,left,1,correct,arm1,2,arm12,beaver
92,8,fist,0.550247056759,left,1,correct,arm1,3,arm13,beaver
93,8,stepladder,0.650304983603,right,1,correct,decision,2,decision2,beaver
94,8,calc,0.700317948475,right,1,correct,arm2,1,arm21,beaver
95,8,tongue,0.800230077235,right,1,correct,arm2,2,arm22,beaver
96,8,beaver,0.767108256696,left,1,correct,arm2,3,arm23,beaver
97,9,arc,2.01698532444,space,1,correct,target,NaN,targetNaN,arc
98,9,trophy,0.700504195644,left,1,correct,path,1,path1,arc
99,9,astronaut,0.500403736951,right,1,correct,path,2,path2,arc
100,9,robot,0.483587755472,right,1,correct,path,3,path3,arc
101,9,watch,1.06709669554,right,1,correct,decision,1,decision1,arc
102,9,clover,1.45006355655,left,1,correct,arm1,1,arm11,arc
103,9,radio,0.916967545054,right,1,correct,arm1,2,arm12,arc
104,9,wing,0.433625201113,left,1,correct,arm1,3,arm13,arc
105,9,holly,1.63363630953,right,1,correct,decision,2,decision2,arc
106,9,match,0.800279582152,right,1,correct,arm2,1,arm21,arc
107,9,baby,0.450282404548,left,1,correct,arm2,2,arm22,arc
108,9,arc,0.283585702884,left,1,correct,arm2,3,arm23,arc
109,10,arc,1.15037727903,space,1,correct,target,NaN,targetNaN,arc
110,10,trophy,0.666923247161,left,1,correct,path,1,path1,arc
111,10,astronaut,0.150224538171,right,1,correct,path,2,path2,arc
112,10,robot,0.200259236852,right,1,correct,path,3,path3,arc
113,10,watch,3.98361235706,left,1,correct,decision,1,decision1,arc
114,10,clover,2.10027707671,left,1,correct,arm1,1,arm11,arc
115,10,radio,0.250290011289,right,1,correct,arm1,2,arm12,arc
116,10,wing,0.183589959168,left,1,correct,arm1,3,arm13,arc
117,10,holly,0.783594607725,left,1,correct,decision,2,decision2,arc
118,10,match,0.517335028504,right,1,correct,arm2,1,arm21,arc
119,10,baby,0.533645697404,left,1,correct,arm2,2,arm22,arc
120,10,arc,0.133837800706,left,1,correct,arm2,3,arm23,arc
121,11,arc,1.48360979126,space,1,correct,target,NaN,targetNaN,arc
122,11,trophy,2.86689420836,left,1,correct,path,1,path1,arc
123,11,astronaut,0.233582095592,right,1,correct,path,2,path2,arc
124,11,robot,0.133604765288,right,1,correct,path,3,path3,arc
125,11,watch,0.766985098133,left,1,correct,decision,1,decision1,arc
126,11,clover,1.05024056684,left,1,correct,arm1,1,arm11,arc
127,11,radio,0.300683318987,right,1,correct,arm1,2,arm12,arc
128,11,wing,0.366933902842,left,1,correct,arm1,3,arm13,arc
129,11,holly,0.600389821106,right,1,correct,decision,2,decision2,arc
130,11,match,0.566962217214,right,1,correct,arm2,1,arm21,arc
131,11,baby,0.600243721274,left,1,correct,arm2,2,arm22,arc
132,11,arc,0.350296924007,left,1,correct,arm2,3,arm23,arc
133,12,arc,0.517181382165,space,1,correct,target,NaN,targetNaN,arc
134,12,trophy,0.650281438604,left,1,correct,path,1,path1,arc
135,12,astronaut,0.316961085191,right,1,correct,path,2,path2,arc
136,12,robot,0.283676260617,right,1,correct,path,3,path3,arc
137,12,watch,2.68374556757,left,1,correct,decision,1,decision1,arc
138,12,clover,1.4004375753,left,1,correct,arm1,1,arm11,arc
139,12,radio,0.466911535012,right,1,correct,arm1,2,arm12,arc
140,12,wing,0.93358852528,left,1,correct,arm1,3,arm13,arc
141,12,holly,2.8169905165,left,1,correct,decision,2,decision2,arc
142,12,match,0.850468832883,right,1,correct,arm2,1,arm21,arc
143,12,baby,0.317230343702,left,1,correct,arm2,2,arm22,arc
144,12,arc,0.250407736632,left,1,correct,arm2,3,arm23,arc
145,13,arc,0.783624189906,space,1,correct,target,NaN,targetNaN,arc
146,13,trophy,0.483589868527,left,1,correct,path,1,path1,arc
147,13,astronaut,0.133583333227,right,1,correct,path,2,path2,arc
148,13,robot,0.134259498212,right,1,correct,path,3,path3,arc
149,13,watch,0.700791867683,right,1,correct,decision,1,decision1,arc
150,13,clover,1.11692130018,left,1,correct,arm1,1,arm11,arc
151,13,radio,0.416923322598,right,1,correct,arm1,2,arm12,arc
152,13,wing,0.533635132364,left,1,correct,arm1,3,arm13,arc
153,13,holly,0.550263659097,left,1,correct,decision,2,decision2,arc
154,13,match,0.550257621915,right,1,correct,arm2,1,arm21,arc
155,13,baby,0.433903515455,left,1,correct,arm2,2,arm22,arc
156,13,arc,0.43362037139,left,1,correct,arm2,3,arm23,arc
157,14,beaver,0.784055546857,space,-1,miss,target,NaN,targetNaN,beaver
158,14,trophy,0.950747720664,left,-1,miss,path,1,path1,beaver
159,14,astronaut,0.117054722039,right,-1,miss,path,2,path2,beaver
160,14,robot,0.150104398141,right,-1,miss,path,3,path3,beaver
161,14,pigeon,1.45116836182,right,-1,miss,decision,1,decision1,beaver
162,14,bus,0.750328196678,right,-1,miss,arm1,1,arm11,beaver
163,14,deer,3.01732521818,left,-1,miss,arm1,2,arm12,beaver
164,14,fist,0.483396074735,left,-1,miss,arm1,3,arm13,beaver
165,14,holly,7.31660458934,right,-1,miss,decision,2,decision2,beaver
166,14,match,1.40024981881,right,-1,miss,arm2,1,arm21,beaver
167,14,baby,1.16694965982,left,-1,miss,arm2,2,arm22,beaver
168,14,arc,0.317215854535,left,-1,miss,arm2,3,arm23,beaver
169,15,arc,4.81693648361,space,1,correct,target,NaN,targetNaN,arc
170,15,trophy,1.28355732805,left,1,correct,path,1,path1,arc
171,15,astronaut,0.116894736537,right,1,correct,path,2,path2,arc
172,15,robot,0.133766259998,right,1,correct,path,3,path3,arc
173,15,watch,1.85028469865,right,1,correct,decision,1,decision1,arc
174,15,clover,0.516910312464,left,1,correct,arm1,1,arm11,arc
175,15,radio,0.433764056419,right,1,correct,arm1,2,arm12,arc
176,15,wing,0.533603738993,left,1,correct,arm1,3,arm13,arc
177,15,holly,1.38359352096,right,1,correct,decision,2,decision2,arc
178,15,match,0.933714702493,right,1,correct,arm2,1,arm21,arc
179,15,baby,0.500310462317,left,1,correct,arm2,2,arm22,arc
180,15,arc,0.150232084561,left,1,correct,arm2,3,arm23,arc
181,16,beaver,1.76694827131,space,1,correct,target,NaN,targetNaN,beaver
182,16,trophy,0.416910946253,left,1,correct,path,1,path1,beaver
183,16,astronaut,0.133584540687,right,1,correct,path,2,path2,beaver
184,16,robot,0.133592690807,right,1,correct,path,3,path3,beaver
185,16,pigeon,0.73436557164,right,1,correct,decision,1,decision1,beaver
186,16,bus,1.73338694358,right,1,correct,arm1,1,arm11,beaver
187,16,deer,0.916928907041,left,1,correct,arm1,2,arm12,beaver
188,16,fist,0.700867936248,left,1,correct,arm1,3,arm13,beaver
189,16,stepladder,2.30033104925,left,1,correct,decision,2,decision2,beaver
190,16,calc,0.933609051746,right,1,correct,arm2,1,arm21,beaver
191,16,tongue,0.550426964881,right,1,correct,arm2,2,arm22,beaver
192,16,beaver,0.633791163447,left,1,correct,arm2,3,arm23,beaver
193,17,arc,1.28403909563,space,1,correct,target,NaN,targetNaN,arc
194,17,trophy,0.650268458645,left,1,correct,path,1,path1,arc
195,17,astronaut,0.233668125584,right,1,correct,path,2,path2,arc
196,17,robot,0.100408385508,right,1,correct,path,3,path3,arc
197,17,watch,1.15029547503,right,1,correct,decision,1,decision1,arc
198,17,clover,1.6169489203,left,1,correct,arm1,1,arm11,arc
199,17,radio,2.06693006924,right,1,correct,arm1,2,arm12,arc
200,17,wing,0.350310809561,left,1,correct,arm1,3,arm13,arc
201,17,holly,2.30101476063,right,1,correct,decision,2,decision2,arc
202,17,match,0.633578956244,right,1,correct,arm2,1,arm21,arc
203,17,baby,0.60007467994,left,1,correct,arm2,2,arm22,arc
204,17,arc,0.65026000666,left,1,correct,arm2,3,arm23,arc
205,18,beaver,6.31753552356,space,1,correct,target,NaN,targetNaN,beaver
206,18,trophy,0.483684048639,left,1,correct,path,1,path1,beaver
207,18,astronaut,0.383632762707,right,1,correct,path,2,path2,beaver
208,18,robot,0.167551869177,right,1,correct,path,3,path3,beaver
209,18,pigeon,2.36763331096,right,1,correct,decision,1,decision1,beaver
210,18,bus,2.80024335906,right,1,correct,arm1,1,arm11,beaver
211,18,deer,1.23356247472,left,1,correct,arm1,2,arm12,beaver
212,18,fist,0.333611043985,left,1,correct,arm1,3,arm13,beaver
213,18,stepladder,0.951097575715,right,1,correct,decision,2,decision2,beaver
214,18,calc,0.81699655368,right,1,correct,arm2,1,arm21,beaver
215,18,tongue,0.416922417004,right,1,correct,arm2,2,arm22,beaver
216,18,beaver,1.35031745047,left,1,correct,arm2,3,arm23,beaver
217,19,beaver,2.03363528324,space,1,correct,target,NaN,targetNaN,beaver
218,19,trophy,1.11675074953,left,1,correct,path,1,path1,beaver
219,19,astronaut,0.216936966637,right,1,correct,path,2,path2,beaver
220,19,robot,0.100238136831,right,1,correct,path,3,path3,beaver
221,19,pigeon,6.31686599948,right,1,correct,decision,1,decision1,beaver
222,19,bus,0.551062680781,right,1,correct,arm1,1,arm11,beaver
223,19,deer,0.550616230699,left,1,correct,arm1,2,arm12,beaver
224,19,fist,0.483601339278,left,1,correct,arm1,3,arm13,beaver
225,19,stepladder,2.11774265941,left,1,correct,decision,2,decision2,beaver
226,19,calc,0.683587393258,right,1,correct,arm2,1,arm21,beaver
227,19,tongue,0.534181799623,right,1,correct,arm2,2,arm22,beaver
228,19,beaver,0.416927246726,left,1,correct,arm2,3,arm23,beaver
229,20,beaver,1.00042531989,space,1,correct,target,NaN,targetNaN,beaver
230,20,trophy,0.650250950828,left,1,correct,path,1,path1,beaver
231,20,astronaut,0.116888699355,right,1,correct,path,2,path2,beaver
232,20,robot,0.150259251939,right,1,correct,path,3,path3,beaver
233,20,pigeon,1.41758892254,right,1,correct,decision,1,decision1,beaver
234,20,bus,0.717014393536,right,1,correct,arm1,1,arm11,beaver
235,20,deer,0.3669121688,left,1,correct,arm1,2,arm12,beaver
236,20,fist,0.150837614434,left,1,correct,arm1,3,arm13,beaver
237,20,stepladder,4.30022841704,left,1,correct,decision,2,decision2,beaver
238,20,calc,0.616917225067,right,1,correct,arm2,1,arm21,beaver
239,20,tongue,0.450262481812,right,1,correct,arm2,2,arm22,beaver
240,20,beaver,0.516733422875,left,1,correct,arm2,3,arm23,beaver
241,21,beaver,0.750308877556,space,1,correct,target,NaN,targetNaN,beaver
242,21,trophy,0.533607663121,left,1,correct,path,1,path1,beaver
243,21,astronaut,0.150228764163,right,1,correct,path,2,path2,beaver
244,21,robot,0.116894736537,right,1,correct,path,3,path3,beaver
245,21,pigeon,3.70022195717,right,1,correct,decision,1,decision1,beaver
246,21,bus,0.450876765652,right,1,correct,arm1,1,arm11,beaver
247,21,deer,0.416914266883,left,1,correct,arm1,2,arm12,beaver
248,21,fist,0.250254090177,left,1,correct,arm1,3,arm13,beaver
249,21,stepladder,1.15032958519,left,1,correct,decision,2,decision2,beaver
250,21,calc,0.650599296438,right,1,correct,arm2,1,arm21,beaver
251,21,tongue,0.333669906599,right,1,correct,arm2,2,arm22,beaver
252,21,beaver,0.333593838033,left,1,correct,arm2,3,arm23,beaver
253,22,arc,1.00031272625,space,1,correct,target,NaN,targetNaN,arc
254,22,trophy,0.967049333733,left,1,correct,path,1,path1,arc
255,22,astronaut,0.100246890797,right,1,correct,path,2,path2,arc
256,22,robot,0.133709812304,right,1,correct,path,3,path3,arc
257,22,watch,4.36671414925,right,1,correct,decision,1,decision1,arc
258,22,clover,0.767020415631,left,1,correct,arm1,1,arm11,arc
259,22,radio,0.933579771314,right,1,correct,arm1,2,arm12,arc
260,22,wing,0.966905648704,left,1,correct,arm1,3,arm13,arc
261,22,holly,4.0671416726,left,1,correct,decision,2,decision2,arc
262,22,match,0.800261772471,right,1,correct,arm2,1,arm21,arc
263,22,baby,0.683607919724,left,1,correct,arm2,2,arm22,arc
264,22,arc,0.63358650275,left,1,correct,arm2,3,arm23,arc
265,23,arc,3.58366500121,space,1,correct,target,NaN,targetNaN,arc
266,23,trophy,0.650650008814,left,1,correct,path,1,path1,arc
267,23,astronaut,2.18406478385,right,1,correct,path,2,path2,arc
268,23,robot,0.600245230598,right,1,correct,path,3,path3,arc
269,23,watch,2.75026782474,right,1,correct,decision,1,decision1,arc
270,23,clover,1.43359290226,left,1,correct,arm1,1,arm11,arc
271,23,radio,0.4836179415,right,1,correct,arm1,2,arm12,arc
272,23,wing,0.866937977844,left,1,correct,arm1,3,arm13,arc
273,23,holly,2.6342013902,right,1,correct,decision,2,decision2,arc
274,23,match,0.483565719798,right,1,correct,arm2,1,arm21,arc
275,23,baby,1.45019456337,left,1,correct,arm2,2,arm22,arc
276,23,arc,1.51693114068,left,1,correct,arm2,3,arm23,arc
277,24,arc,6.26688593731,space,1,correct,target,NaN,targetNaN,arc
278,24,trophy,0.600269077462,left,1,correct,path,1,path1,arc
279,24,astronaut,0.300350368139,right,1,correct,path,2,path2,arc
280,24,robot,0.266894389293,right,1,correct,path,3,path3,arc
281,24,watch,1.55024434009,left,1,correct,decision,1,decision1,arc
282,24,clover,1.10025473917,left,1,correct,arm1,1,arm11,arc
283,24,radio,0.666956451605,right,1,correct,arm1,2,arm12,arc
284,24,wing,0.433572677663,left,1,correct,arm1,3,arm13,arc
285,24,holly,1.53363815101,left,1,correct,decision,2,decision2,arc
286,24,match,0.500394379254,right,1,correct,arm2,1,arm21,arc
287,24,baby,1.21690889378,left,1,correct,arm2,2,arm22,arc
288,24,arc,0.450241653481,left,1,correct,arm2,3,arm23,arc
289,25,beaver,1.0673445221,space,1,correct,target,NaN,targetNaN,beaver
290,25,trophy,0.783618152724,left,1,correct,path,1,path1,beaver
291,25,astronaut,0.233610772295,right,1,correct,path,2,path2,beaver
292,25,robot,0.200269198162,right,1,correct,path,3,path3,beaver
293,25,pigeon,1.38360348239,right,1,correct,decision,1,decision1,beaver
294,25,bus,1.08361987327,right,1,correct,arm1,1,arm11,beaver
295,25,deer,0.26693453663,left,1,correct,arm1,2,arm12,beaver
296,25,fist,0.200254105264,left,1,correct,arm1,3,arm13,beaver
297,25,stepladder,1.58361157216,left,1,correct,decision,2,decision2,beaver
298,25,calc,0.866972691729,right,1,correct,arm2,1,arm21,beaver
299,25,tongue,0.833578594029,right,1,correct,arm2,2,arm22,beaver
300,25,beaver,1.18359569449,left,1,correct,arm2,3,arm23,beaver
301,26,arc,1.46694504132,space,1,correct,target,NaN,targetNaN,arc
302,26,trophy,0.567016551853,left,1,correct,path,1,path1,arc
303,26,astronaut,0.166899249307,right,1,correct,path,2,path2,arc
304,26,robot,0.183564602979,right,1,correct,path,3,path3,arc
305,26,watch,0.600314054522,left,1,correct,decision,1,decision1,arc
306,26,clover,2.60009882879,left,1,correct,arm1,1,arm11,arc
307,26,radio,2.38356816489,right,1,correct,arm1,2,arm12,arc
308,26,wing,0.483608885552,left,1,correct,arm1,3,arm13,arc
309,26,holly,1.30035731092,right,1,correct,decision,2,decision2,arc
310,26,match,0.58361519454,right,1,correct,arm2,1,arm21,arc
311,26,baby,0.467074237182,left,1,correct,arm2,2,arm22,arc
312,26,arc,0.467034693691,left,1,correct,arm2,3,arm23,arc
313,27,beaver,1.43387574446,space,-1,miss,target,NaN,targetNaN,beaver
314,27,trophy,2.6838101655,left,-1,miss,path,1,path1,beaver
315,27,astronaut,0.867120602867,right,-1,miss,path,2,path2,beaver
316,27,robot,0.266753421049,right,-1,miss,path,3,path3,beaver
317,27,watch,0.716930476716,left,-1,miss,decision,1,decision1,beaver
318,27,clover,2.21698647155,left,-1,miss,arm1,1,arm11,beaver
319,27,radio,0.700249728281,right,-1,miss,arm1,2,arm12,beaver
320,27,wing,0.25041166076,left,-1,miss,arm1,3,arm13,beaver
321,27,holly,1.38358718192,right,-1,miss,decision,2,decision2,beaver
322,27,match,0.817467454239,right,-1,miss,arm2,1,arm21,beaver
323,27,baby,0.350247117109,left,-1,miss,arm2,2,arm22,beaver
324,27,arc,0.950291913119,left,-1,miss,arm2,3,arm23,beaver
325,28,arc,2.48359862238,space,1,correct,target,NaN,targetNaN,arc
326,28,trophy,0.766922613257,left,1,correct,path,1,path1,arc
327,28,astronaut,0.233785548829,right,1,correct,path,2,path2,arc
328,28,robot,0.150236612535,right,1,correct,path,3,path3,arc
329,28,watch,1.13413271739,right,1,correct,decision,1,decision1,arc
330,28,clover,0.73371989443,left,1,correct,arm1,1,arm11,arc
331,28,radio,0.417050707154,right,1,correct,arm1,2,arm12,arc
332,28,wing,0.283570308005,left,1,correct,arm1,3,arm13,arc
333,28,holly,1.05025928211,left,1,correct,decision,2,decision2,arc
334,28,match,0.466936589335,right,1,correct,arm2,1,arm21,arc
335,28,baby,0.95043288148,left,1,correct,arm2,2,arm22,arc
336,28,arc,0.633611255209,left,1,correct,arm2,3,arm23,arc
337,29,arc,4.88332743198,space,1,correct,target,NaN,targetNaN,arc
338,29,trophy,0.80026297993,left,1,correct,path,1,path1,arc
339,29,astronaut,0.250272503588,right,1,correct,path,2,path2,arc
340,29,robot,0.1836165227,right,1,correct,path,3,path3,arc
341,29,watch,1.63373562123,left,1,correct,decision,1,decision1,arc
342,29,clover,4.31690101523,left,1,correct,arm1,1,arm11,arc
343,29,radio,0.183533511357,right,1,correct,arm1,2,arm12,arc
344,29,wing,0.200361265219,left,1,correct,arm1,3,arm13,arc
345,29,holly,1.85051984712,right,1,correct,decision,2,decision2,arc
346,29,match,0.433596524526,right,1,correct,arm2,1,arm21,arc
347,29,baby,0.400201521348,left,1,correct,arm2,2,arm22,arc
348,29,arc,0.183702250826,left,1,correct,arm2,3,arm23,arc
349,30,beaver,1.56672586128,space,1,correct,target,NaN,targetNaN,beaver
350,30,trophy,0.633606425487,left,1,correct,path,1,path1,beaver
351,30,astronaut,0.133573673782,right,1,correct,path,2,path2,beaver
352,30,robot,0.100232401513,right,1,correct,path,3,path3,beaver
353,30,pigeon,0.517112256377,right,1,correct,decision,1,decision1,beaver
354,30,bus,0.617926039035,right,1,correct,arm1,1,arm11,beaver
355,30,deer,0.516795907752,left,1,correct,arm1,2,arm12,beaver
356,30,fist,0.233591151424,left,1,correct,arm1,3,arm13,beaver
357,30,stepladder,1.2011403644,left,1,correct,decision,2,decision2,beaver
358,30,calc,0.767074146657,right,1,correct,arm2,1,arm21,beaver
359,30,tongue,0.500879165484,right,1,correct,arm2,2,arm22,beaver
360,30,beaver,0.333581763553,left,1,correct,arm2,3,arm23,beaver
361,31,beaver,2.33355097391,space,1,correct,target,NaN,targetNaN,beaver
362,31,trophy,0.816729106242,left,1,correct,path,1,path1,beaver
363,31,astronaut,1.41689524963,right,1,correct,path,2,path2,beaver
364,31,robot,0.284161650459,right,1,correct,path,3,path3,beaver
365,31,pigeon,1.36691911158,right,1,correct,decision,1,decision1,beaver
366,31,bus,1.73395232612,right,1,correct,arm1,1,arm11,beaver
367,31,deer,0.283632189152,left,1,correct,arm1,2,arm12,beaver
368,31,fist,0.233614092693,left,1,correct,arm1,3,arm13,beaver
369,31,stepladder,3.75018692645,right,1,correct,decision,2,decision2,beaver
370,31,calc,0.700243389118,right,1,correct,arm2,1,arm21,beaver
371,31,tongue,0.483933082665,right,1,correct,arm2,2,arm22,beaver
372,31,beaver,1.36697555927,left,1,correct,arm2,3,arm23,beaver
373,32,arc,1.35031835595,space,1,correct,target,NaN,targetNaN,arc
374,32,trophy,0.433637577458,left,1,correct,path,1,path1,arc
375,32,astronaut,0.150313888444,right,1,correct,path,2,path2,arc
376,32,robot,0.0836271179141,right,1,correct,path,3,path3,arc
377,32,watch,0.65031071892,right,1,correct,decision,1,decision1,arc
378,32,clover,0.800297693699,left,1,correct,arm1,1,arm11,arc
379,32,radio,0.350446042488,right,1,correct,arm1,2,arm12,arc
380,32,wing,0.166670439998,left,1,correct,arm1,3,arm13,arc
381,32,holly,1.40028483456,left,1,correct,decision,2,decision2,arc
382,32,match,2.38362129207,right,1,correct,arm2,1,arm21,arc
383,32,baby,0.450276971096,left,1,correct,arm2,2,arm22,arc
384,32,arc,0.500737593393,left,1,correct,arm2,3,arm23,arc
385,33,beaver,0.533598305425,space,1,correct,target,NaN,targetNaN,beaver
386,33,trophy,0.416936302558,left,1,correct,path,1,path1,beaver
387,33,astronaut,0.116944241454,right,1,correct,path,2,path2,beaver
388,33,robot,0.116994953831,right,1,correct,path,3,path3,beaver
389,33,pigeon,1.55003575527,right,1,correct,decision,1,decision1,beaver
390,33,bus,0.46669661114,right,1,correct,arm1,1,arm11,beaver
391,33,deer,0.233654541895,left,1,correct,arm1,2,arm12,beaver
392,33,fist,0.116882360307,left,1,correct,arm1,3,arm13,beaver
393,33,stepladder,0.950286177802,right,1,correct,decision,2,decision2,beaver
394,33,calc,1.93431268586,right,1,correct,arm2,1,arm21,beaver
395,33,tongue,0.433608598891,right,1,correct,arm2,2,arm22,beaver
396,33,beaver,0.417563566356,left,1,correct,arm2,3,arm23,beaver
397,34,beaver,0.917035463382,space,1,correct,target,NaN,targetNaN,beaver
398,34,trophy,0.433589279884,left,1,correct,path,1,path1,beaver
399,34,astronaut,0.166946339421,right,1,correct,path,2,path2,beaver
400,34,robot,0.133589672274,right,1,correct,path,3,path3,beaver
401,34,pigeon,0.533684335416,right,1,correct,decision,1,decision1,beaver
402,34,bus,1.48368827475,right,1,correct,arm1,1,arm11,beaver
403,34,deer,0.316970744636,left,1,correct,arm1,2,arm12,beaver
404,34,fist,0.150256535155,left,1,correct,arm1,3,arm13,beaver
405,34,stepladder,1.71689485724,left,1,correct,decision,2,decision2,beaver
406,34,calc,0.517022000393,right,1,correct,arm2,1,arm21,beaver
407,34,tongue,0.433587166946,right,1,correct,arm2,2,arm22,beaver
408,34,beaver,0.383728150278,left,1,correct,arm2,3,arm23,beaver
409,35,arc,0.783583438955,space,-1,miss,target,NaN,targetNaN,arc
410,35,trophy,8.55011454062,left,-1,miss,path,1,path1,arc
411,35,astronaut,0.116912546218,right,-1,miss,path,2,path2,arc
412,35,robot,0.150266194716,right,-1,miss,path,3,path3,arc
413,35,pigeon,2.53410844784,right,-1,miss,decision,1,decision1,arc
414,35,bus,0.8002623762,right,-1,miss,arm1,1,arm11,arc
415,35,deer,0.516718027997,left,-1,miss,arm1,2,arm12,arc
416,35,fist,0.116952391574,left,-1,miss,arm1,3,arm13,arc
417,35,stepladder,0.650331245386,left,-1,miss,decision,2,decision2,arc
418,35,calc,1.05025988573,right,-1,miss,arm2,1,arm21,arc
419,35,tongue,1.58372295822,right,-1,miss,arm2,2,arm22,arc
420,35,beaver,0.166965960292,left,-1,miss,arm2,3,arm23,arc
421,36,arc,0.566994516063,space,-1,miss,target,NaN,targetNaN,arc
422,36,trophy,1.43360105238,left,-1,miss,path,1,path1,arc
423,36,astronaut,0.133612311678,right,-1,miss,path,2,path2,arc
424,36,robot,0.150033159181,right,-1,miss,path,3,path3,arc
425,36,watch,1.68364323722,left,-1,miss,decision,1,decision1,arc
426,36,clover,5.60022349667,left,-1,miss,arm1,1,arm11,arc
427,36,radio,0.150051874458,right,-1,miss,arm1,2,arm12,arc
428,36,wing,0.116907112766,left,-1,miss,arm1,3,arm13,arc
429,36,stepladder,1.2336427694,right,-1,miss,decision,2,decision2,arc
430,36,calc,0.700444427435,right,-1,miss,arm2,1,arm21,arc
431,36,tongue,0.483630921459,right,-1,miss,arm2,2,arm22,arc
432,36,beaver,0.266974080238,left,-1,miss,arm2,3,arm23,arc
433,37,beaver,0.683690025471,space,1,correct,target,NaN,targetNaN,beaver
434,37,trophy,0.450896688271,left,1,correct,path,1,path1,beaver
435,37,astronaut,0.200303308317,right,1,correct,path,2,path2,beaver
436,37,robot,0.216946626082,right,1,correct,path,3,path3,beaver
437,37,pigeon,0.883653440163,right,1,correct,decision,1,decision1,beaver
438,37,bus,0.5002727299,right,1,correct,arm1,1,arm11,beaver
439,37,deer,0.350358201424,left,1,correct,arm1,2,arm12,beaver
440,37,fist,0.18358271441,left,1,correct,arm1,3,arm13,beaver
441,37,stepladder,2.28367626062,right,1,correct,decision,2,decision2,beaver
442,37,calc,4.60032069532,right,1,correct,arm2,1,arm21,beaver
443,37,tongue,0.916934038629,right,1,correct,arm2,2,arm22,beaver
444,37,beaver,0.400267024757,left,1,correct,arm2,3,arm23,beaver
445,38,beaver,0.616935034748,space,1,correct,target,NaN,targetNaN,beaver
446,38,trophy,0.417125266511,left,1,correct,path,1,path1,beaver
447,38,astronaut,0.133584540687,right,1,correct,path,2,path2,beaver
448,38,robot,0.100814084522,right,1,correct,path,3,path3,beaver
449,38,pigeon,0.283733312157,right,1,correct,decision,1,decision1,beaver
450,38,bus,0.55033369048,right,1,correct,arm1,1,arm11,beaver
451,38,deer,0.183659990435,left,1,correct,arm1,2,arm12,beaver
452,38,fist,0.134110077866,left,1,correct,arm1,3,arm13,beaver
453,38,stepladder,1.13363555493,right,1,correct,decision,2,decision2,beaver
454,38,calc,0.883631404373,right,1,correct,arm2,1,arm21,beaver
455,38,tongue,0.46698941465,right,1,correct,arm2,2,arm22,beaver
456,38,beaver,0.233591151424,left,1,correct,arm2,3,arm23,beaver
457,39,arc,0.950335380854,space,-1,miss,target,NaN,targetNaN,arc
458,39,trophy,0.466719552409,left,-1,miss,path,1,path1,arc
459,39,astronaut,0.0836002525175,right,-1,miss,path,2,path2,arc
460,39,robot,0.100222138339,right,-1,miss,path,3,path3,arc
461,39,watch,0.816988705425,right,-1,miss,decision,1,decision1,arc
462,39,clover,1.05026350811,left,-1,miss,arm1,1,arm11,arc
463,39,radio,0.116897151456,right,-1,miss,arm1,2,arm12,arc
464,39,wing,0.266929405043,left,-1,miss,arm1,3,arm13,arc
465,39,stepladder,0.566949539003,right,-1,miss,decision,2,decision2,arc
466,39,calc,4.31688260182,right,-1,miss,arm2,1,arm21,arc
467,39,tongue,0.500298387953,right,-1,miss,arm2,2,arm22,arc
468,39,beaver,0.166901965975,left,-1,miss,arm2,3,arm23,arc
469,40,arc,0.250265862676,space,1,correct,target,NaN,targetNaN,arc
470,40,trophy,2.23368955764,left,1,correct,path,1,path1,arc
471,40,astronaut,0.183792808559,right,1,correct,path,2,path2,arc
472,40,robot,0.133557373309,right,1,correct,path,3,path3,arc
473,40,watch,0.533579288283,left,1,correct,decision,1,decision1,arc
474,40,clover,0.883602124057,left,1,correct,arm1,1,arm11,arc
475,40,radio,0.267240923946,right,1,correct,arm1,2,arm12,arc
476,40,wing,0.167321248678,left,1,correct,arm1,3,arm13,arc
477,40,holly,1.28342722671,left,1,correct,decision,2,decision2,arc
478,40,match,0.516936272383,right,1,correct,arm2,1,arm21,arc
479,40,baby,2.6669051355,left,1,correct,arm2,2,arm22,arc
480,40,arc,0.517014755751,left,1,correct,arm2,3,arm23,arc
481,41,beaver,1.83363836224,space,1,correct,target,NaN,targetNaN,beaver
482,41,trophy,3.71688006609,left,1,correct,path,1,path1,beaver
483,41,astronaut,0.200261048041,right,1,correct,path,2,path2,beaver
484,41,robot,0.116925526178,right,1,correct,path,3,path3,beaver
485,41,pigeon,0.716988735483,left,1,correct,decision,1,decision1,beaver
486,41,bus,0.51708267408,right,1,correct,arm1,1,arm11,beaver
487,41,deer,0.666935925139,left,1,correct,arm1,2,arm12,beaver
488,41,fist,0.450443899375,left,1,correct,arm1,3,arm13,beaver
489,41,stepladder,0.800274450565,left,1,correct,decision,2,decision2,beaver
490,41,calc,0.583665303187,right,1,correct,arm2,1,arm21,beaver
491,41,tongue,0.566919353209,right,1,correct,arm2,2,arm22,beaver
492,41,beaver,1.16695599887,left,1,correct,arm2,3,arm23,beaver
493,42,arc,1.13366242032,space,1,correct,target,NaN,targetNaN,arc
494,42,trophy,2.93358067691,left,1,correct,path,1,path1,arc
495,42,astronaut,0.166898645577,right,1,correct,path,2,path2,arc
496,42,robot,0.183571847505,right,1,correct,path,3,path3,arc
497,42,watch,1.21694240009,left,1,correct,decision,1,decision1,arc
498,42,clover,1.05036010314,left,1,correct,arm1,1,arm11,arc
499,42,radio,0.166910418193,right,1,correct,arm1,2,arm12,arc
500,42,wing,0.366941449349,left,1,correct,arm1,3,arm13,arc
501,42,holly,1.25043037592,right,1,correct,decision,2,decision2,arc
502,42,match,0.30029542977,right,1,correct,arm2,1,arm21,arc
503,42,baby,0.616963711451,left,1,correct,arm2,2,arm22,arc
504,42,arc,0.150302719674,left,1,correct,arm2,3,arm23,arc
505,43,beaver,0.667430672678,space,1,correct,target,NaN,targetNaN,beaver
506,43,trophy,0.566944407532,left,1,correct,path,1,path1,beaver
507,43,astronaut,0.433614636073,right,1,correct,path,2,path2,beaver
508,43,robot,0.233609564835,right,1,correct,path,3,path3,beaver
509,43,pigeon,1.4502769711,left,1,correct,decision,1,decision1,beaver
510,43,bus,0.517070297967,right,1,correct,arm1,1,arm11,beaver
511,43,deer,0.466941720806,left,1,correct,arm1,2,arm12,beaver
512,43,fist,0.383608613978,left,1,correct,arm1,3,arm13,beaver
513,43,stepladder,2.76711851987,right,1,correct,decision,2,decision2,beaver
514,43,calc,0.566919956938,right,1,correct,arm2,1,arm21,beaver
515,43,tongue,0.450269424589,right,1,correct,arm2,2,arm22,beaver
516,43,beaver,0.61691662122,left,1,correct,arm2,3,arm23,beaver
517,44,arc,3.15028883412,space,-1,miss,target,NaN,targetNaN,arc
518,44,trophy,0.466919081402,left,-1,miss,path,1,path1,arc
519,44,astronaut,0.26689438941,right,-1,miss,path,2,path2,arc
520,44,robot,0.316909165354,right,-1,miss,path,3,path3,arc
521,44,watch,0.466983075719,right,-1,miss,decision,1,decision1,arc
522,44,clover,3.65021714254,left,-1,miss,arm1,1,arm11,arc
523,44,radio,0.350302357459,right,-1,miss,arm1,2,arm12,arc
524,44,wing,0.300263432669,left,-1,miss,arm1,3,arm13,arc
525,44,stepladder,0.816927427892,left,-1,miss,decision,2,decision2,arc
526,44,calc,1.31700183626,right,-1,miss,arm2,1,arm21,arc
527,44,tongue,0.433639086667,right,-1,miss,arm2,2,arm22,arc
528,44,beaver,0.266921254806,left,-1,miss,arm2,3,arm23,arc
529,45,arc,1.45030504407,space,1,correct,target,NaN,targetNaN,arc
530,45,trophy,0.53358743852,left,1,correct,path,1,path1,arc
531,45,astronaut,4.03362773673,right,1,correct,path,2,path2,arc
532,45,robot,0.283622227842,right,1,correct,path,3,path3,arc
533,45,watch,0.617018347839,left,1,correct,decision,1,decision1,arc
534,45,clover,1.20025833126,left,1,correct,arm1,1,arm11,arc
535,45,radio,0.93358852528,right,1,correct,arm1,2,arm12,arc
536,45,wing,0.500069880392,left,1,correct,arm1,3,arm13,arc
537,45,holly,1.18361350417,right,1,correct,decision,2,decision2,arc
538,45,match,4.26688231505,right,1,correct,arm2,1,arm21,arc
539,45,baby,0.716968510882,left,1,correct,arm2,2,arm22,arc
540,45,arc,0.483589566662,left,1,correct,arm2,3,arm23,arc
541,46,beaver,0.584079454304,space,1,correct,target,NaN,targetNaN,beaver
542,46,trophy,0.283841981436,left,1,correct,path,1,path1,beaver
543,46,astronaut,0.11675769242,right,1,correct,path,2,path2,beaver
544,46,robot,0.200414090767,right,1,correct,path,3,path3,beaver
545,46,pigeon,0.350460531772,left,1,correct,decision,1,decision1,beaver
546,46,bus,0.650369581534,right,1,correct,arm1,1,arm11,beaver
547,46,deer,0.23364246753,left,1,correct,arm1,2,arm12,beaver
548,46,fist,0.216916742036,left,1,correct,arm1,3,arm13,beaver
549,46,stepladder,0.833587347995,left,1,correct,decision,2,decision2,beaver
550,46,calc,0.483595603844,right,1,correct,arm2,1,arm21,beaver
551,46,tongue,0.400283023249,right,1,correct,arm2,2,arm22,beaver
552,46,beaver,0.316968631698,left,1,correct,arm2,3,arm23,beaver
553,47,beaver,4.30031806917,space,-1,miss,target,NaN,targetNaN,beaver
554,47,trophy,0.666948905215,left,-1,miss,path,1,path1,beaver
555,47,astronaut,0.233632204356,right,-1,miss,path,2,path2,beaver
556,47,robot,0.233567606425,right,-1,miss,path,3,path3,beaver
557,47,pigeon,0.400423086132,right,-1,miss,decision,1,decision1,beaver
558,47,bus,0.733605489717,right,-1,miss,arm1,1,arm11,beaver
559,47,deer,0.350257984013,left,-1,miss,arm1,2,arm12,beaver
560,47,fist,0.400293588405,left,-1,miss,arm1,3,arm13,beaver
561,47,holly,0.783653772203,left,-1,miss,decision,2,decision2,beaver
562,47,match,2.68359131739,right,-1,miss,arm2,1,arm21,beaver
563,47,baby,1.20023086201,left,-1,miss,arm2,2,arm22,beaver
564,47,arc,0.350273680757,left,-1,miss,arm2,3,arm23,beaver
565,48,beaver,0.783654677682,space,1,correct,target,NaN,targetNaN,beaver
566,48,trophy,1.18363071,left,1,correct,path,1,path1,beaver
567,48,astronaut,0.1502689115,right,1,correct,path,2,path2,beaver
568,48,robot,0.250874411082,right,1,correct,path,3,path3,beaver
569,48,pigeon,0.800286223064,left,1,correct,decision,1,decision1,beaver
570,48,bus,0.450234106975,right,1,correct,arm1,1,arm11,beaver
571,48,deer,0.450256746495,left,1,correct,arm1,2,arm12,beaver
572,48,fist,0.433692213963,left,1,correct,arm1,3,arm13,beaver
573,48,stepladder,2.61695586308,right,1,correct,decision,2,decision2,beaver
574,48,calc,0.650295324158,right,1,correct,arm2,1,arm21,beaver
575,48,tongue,0.533593475702,right,1,correct,arm2,2,arm22,beaver
576,48,beaver,0.933595468057,left,1,correct,arm2,3,arm23,beaver
577,49,beaver,0.733727440936,space,1,correct,target,NaN,targetNaN,beaver
578,49,trophy,1.28358600463,left,1,correct,path,1,path1,beaver
579,49,astronaut,0.184206657694,right,1,correct,path,2,path2,beaver
580,49,robot,0.233622242929,right,1,correct,path,3,path3,beaver
581,49,pigeon,0.867022498511,right,1,correct,decision,1,decision1,beaver
582,49,bus,0.48368253943,right,1,correct,arm1,1,arm11,beaver
583,49,deer,0.233801547321,left,1,correct,arm1,2,arm12,beaver
584,49,fist,0.200411373866,left,1,correct,arm1,3,arm13,beaver
585,49,stepladder,1.63364808203,right,1,correct,decision,2,decision2,beaver
586,49,calc,0.484438093379,right,1,correct,arm2,1,arm21,beaver
587,49,tongue,1.08353595645,right,1,correct,arm2,2,arm22,beaver
588,49,beaver,0.250589154079,left,1,correct,arm2,3,arm23,beaver
589,50,beaver,0.716973038856,space,1,correct,target,NaN,targetNaN,beaver
590,50,trophy,0.567091111094,left,1,correct,path,1,path1,beaver
591,50,astronaut,0.683624823927,right,1,correct,path,2,path2,beaver
592,50,robot,0.366965296213,right,1,correct,path,3,path3,beaver
593,50,pigeon,3.91671307757,left,1,correct,decision,1,decision1,beaver
594,50,bus,0.367111999891,right,1,correct,arm1,1,arm11,beaver
595,50,deer,0.183584827464,left,1,correct,arm1,2,arm12,beaver
596,50,fist,0.167080364889,left,1,correct,arm1,3,arm13,beaver
597,50,stepladder,0.550321917981,right,1,correct,decision,2,decision2,beaver
598,50,calc,0.483678917051,right,1,correct,arm2,1,arm21,beaver
599,50,tongue,0.433608297026,right,1,correct,arm2,2,arm22,beaver
600,50,beaver,0.116889604949,left,1,correct,arm2,3,arm23,beaver
