pic_index,trial_num,pic_name,rt,resp,feedback_code,feedback,segment,segment_index,pic_type,trial_target
1,1,arc,26.8333525015,space,-1,miss,target,NaN,targetNaN,arc
2,1,trophy,4.05027920473,right,-1,miss,path,1,path1,arc
3,1,astronaut,1.28358872142,right,-1,miss,path,2,path2,arc
4,1,robot,1.03357943916,right,-1,miss,path,3,path3,arc
5,1,watch,36.4830902913,right,-1,miss,decision,1,decision1,arc
6,1,clover,7.06684373738,left,-1,miss,arm1,1,arm11,arc
7,1,radio,4.18360927817,right,-1,miss,arm1,2,arm12,arc
8,1,wing,1.55023679347,left,-1,miss,arm1,3,arm13,arc
9,1,stepladder,4.36689254805,left,-1,miss,decision,2,decision2,arc
10,1,calc,2.65026513813,right,-1,miss,arm2,1,arm21,arc
11,1,tongue,2.86694884486,right,-1,miss,arm2,2,arm22,arc
12,1,beaver,3.95020407205,left,-1,miss,arm2,3,arm23,arc
13,2,beaver,2.90028317412,space,-1,miss,target,NaN,targetNaN,beaver
14,2,trophy,2.30029905192,right,-1,miss,path,1,path1,beaver
15,2,astronaut,0.750261787558,right,-1,miss,path,2,path2,beaver
16,2,robot,0.71691810037,right,-1,miss,path,3,path3,beaver
17,2,watch,4.18358663865,left,-1,miss,decision,1,decision1,beaver
18,2,clover,2.28354314063,left,-1,miss,arm1,1,arm11,beaver
19,2,radio,0.800274450565,right,-1,miss,arm1,2,arm12,beaver
20,2,wing,1.15056745033,left,-1,miss,arm1,3,arm13,beaver
21,2,holly,4.18355071731,left,-1,miss,decision,2,decision2,beaver
22,2,match,3.15024053678,right,-1,miss,arm2,1,arm21,beaver
23,2,baby,1.60024100449,left,-1,miss,arm2,2,arm22,beaver
24,2,arc,2.75023280922,left,-1,miss,arm2,3,arm23,beaver
25,3,beaver,2.91702972795,space,-1,miss,target,NaN,targetNaN,beaver
26,3,trophy,0.683568678098,right,-1,miss,path,1,path1,beaver
27,3,astronaut,0.450331003871,right,-1,miss,path,2,path2,beaver
28,3,robot,0.450211769436,right,-1,miss,path,3,path3,beaver
29,3,watch,3.81680306164,left,-1,miss,decision,1,decision1,beaver
30,3,clover,2.28359777736,left,-1,miss,arm1,1,arm11,beaver
31,3,radio,1.18357909215,right,-1,miss,arm1,2,arm12,beaver
32,3,wing,0.650247932179,left,-1,miss,arm1,3,arm13,beaver
33,3,holly,1.18342725676,right,-1,miss,decision,2,decision2,beaver
34,3,match,5.45021841046,right,-1,miss,arm2,1,arm21,beaver
35,3,baby,0.550266074017,left,-1,miss,arm2,2,arm22,beaver
36,3,arc,0.817115788115,left,-1,miss,arm2,3,arm23,beaver
37,4,beaver,4.03361022891,space,1,correct,target,NaN,targetNaN,beaver
38,4,trophy,1.20026708534,right,1,correct,path,1,path1,beaver
39,4,astronaut,0.400220236508,right,1,correct,path,2,path2,beaver
40,4,robot,0.60000163014,right,1,correct,path,3,path3,beaver
41,4,pigeon,2.08444153471,left,1,correct,decision,1,decision1,beaver
42,4,bus,3.21696956758,right,1,correct,arm1,1,arm11,beaver
43,4,deer,0.767116105184,left,1,correct,arm1,2,arm12,beaver
44,4,fist,1.4002658173,left,1,correct,arm1,3,arm13,beaver
45,4,stepladder,8.06686335825,right,1,correct,decision,2,decision2,beaver
46,4,calc,1.46694111708,right,1,correct,arm2,1,arm21,beaver
47,4,tongue,1.13358906866,right,1,correct,arm2,2,arm22,beaver
48,4,beaver,3.5506104955,left,1,correct,arm2,3,arm23,beaver
49,5,beaver,1.067050813,space,1,correct,target,NaN,targetNaN,beaver
50,5,trophy,0.61690907483,right,1,correct,path,1,path1,beaver
51,5,astronaut,0.383582955925,right,1,correct,path,2,path2,beaver
52,5,robot,0.366718676873,right,1,correct,path,3,path3,beaver
53,5,pigeon,7.66686559189,right,1,correct,decision,1,decision1,beaver
54,5,bus,1.81670314632,right,1,correct,arm1,1,arm11,beaver
55,5,deer,0.583836457459,left,1,correct,arm1,2,arm12,beaver
56,5,fist,0.766946158139,left,1,correct,arm1,3,arm13,beaver
57,5,stepladder,1.80022736057,right,1,correct,decision,2,decision2,beaver
58,5,calc,1.11690862197,right,1,correct,arm2,1,arm21,beaver
59,5,tongue,0.550289317034,right,1,correct,arm2,2,arm22,beaver
60,5,beaver,1.15026498726,left,1,correct,arm2,3,arm23,beaver
61,6,arc,1.71710102702,space,-1,miss,target,NaN,targetNaN,arc
62,6,trophy,0.650276910746,right,-1,miss,path,1,path1,arc
63,6,astronaut,0.400287551107,right,-1,miss,path,2,path2,arc
64,6,robot,0.266972872894,right,-1,miss,path,3,path3,arc
65,6,pigeon,2.75029046414,right,-1,miss,decision,1,decision1,arc
66,6,bus,1.40028845682,right,-1,miss,arm1,1,arm11,arc
67,6,deer,0.550074091414,left,-1,miss,arm1,2,arm12,arc
68,6,fist,2.60024100449,left,-1,miss,arm1,3,arm13,arc
69,6,stepladder,1.48361763963,left,-1,miss,decision,2,decision2,arc
70,6,calc,2.18356309342,right,-1,miss,arm2,1,arm21,arc
71,6,tongue,5.94997797953,right,-1,miss,arm2,2,arm22,arc
72,6,beaver,1.30026584747,left,-1,miss,arm2,3,arm23,arc
73,7,beaver,0.783704182599,space,1,correct,target,NaN,targetNaN,beaver
74,7,trophy,0.533639962086,right,1,correct,path,1,path1,beaver
75,7,astronaut,0.416961658746,right,1,correct,path,2,path2,beaver
76,7,robot,0.483697330579,right,1,correct,path,3,path3,beaver
77,7,pigeon,1.33372243005,left,1,correct,decision,1,decision1,beaver
78,7,bus,1.26693483861,right,1,correct,arm1,1,arm11,beaver
79,7,deer,0.501074770233,left,1,correct,arm1,2,arm12,beaver
80,7,fist,1.06707556546,left,1,correct,arm1,3,arm13,beaver
81,7,stepladder,0.700296818279,right,1,correct,decision,2,decision2,beaver
82,7,calc,3.10023602378,right,1,correct,arm2,1,arm21,beaver
83,7,tongue,1.56703647459,right,1,correct,arm2,2,arm22,beaver
84,7,beaver,0.550613212166,left,1,correct,arm2,3,arm23,beaver
85,8,arc,0.350427930942,space,-1,miss,target,NaN,targetNaN,arc
86,8,trophy,0.584281096235,right,-1,miss,path,1,path1,arc
87,8,astronaut,0.316678846721,right,-1,miss,path,2,path2,arc
88,8,robot,0.266938762739,right,-1,miss,path,3,path3,arc
89,8,pigeon,1.16699916474,right,-1,miss,decision,1,decision1,arc
90,8,bus,3.48355666385,right,-1,miss,arm1,1,arm11,arc
91,8,deer,1.01695181802,left,-1,miss,arm1,2,arm12,arc
92,8,fist,0.583630891051,left,-1,miss,arm1,3,arm13,arc
93,8,stepladder,0.716963379411,right,-1,miss,decision,2,decision2,arc
94,8,calc,0.717597887618,right,-1,miss,arm2,1,arm21,arc
95,8,tongue,0.933658858528,right,-1,miss,arm2,2,arm22,arc
96,8,beaver,0.517115576658,left,-1,miss,arm2,3,arm23,arc
97,9,arc,3.38360770838,space,-1,miss,target,NaN,targetNaN,arc
98,9,trophy,0.966920138104,right,-1,miss,path,1,path1,arc
99,9,astronaut,0.800294976914,right,-1,miss,path,2,path2,arc
100,9,robot,0.566941087134,right,-1,miss,path,3,path3,arc
101,9,pigeon,0.950256595388,left,-1,miss,decision,1,decision1,arc
102,9,bus,2.01693280088,right,-1,miss,arm1,1,arm11,arc
103,9,deer,0.650297437096,left,-1,miss,arm1,2,arm12,arc
104,9,fist,0.616965220543,left,-1,miss,arm1,3,arm13,arc
105,9,stepladder,0.683404466603,right,-1,miss,decision,2,decision2,arc
106,9,calc,0.650266043609,right,-1,miss,arm2,1,arm21,arc
107,9,tongue,0.683624823811,right,-1,miss,arm2,2,arm22,arc
108,9,beaver,0.650248535909,left,-1,miss,arm2,3,arm23,arc
109,10,arc,2.21695839847,space,-1,miss,target,NaN,targetNaN,arc
110,10,trophy,2.600233156,right,-1,miss,path,1,path1,arc
111,10,astronaut,0.483651447808,right,-1,miss,path,2,path2,arc
112,10,robot,0.283586608479,right,-1,miss,path,3,path3,arc
113,10,pigeon,1.91699320311,right,-1,miss,decision,1,decision1,arc
114,10,bus,0.883666118141,right,-1,miss,arm1,1,arm11,arc
115,10,deer,1.56694319984,left,-1,miss,arm1,2,arm12,arc
116,10,fist,1.46698096255,left,-1,miss,arm1,3,arm13,arc
117,10,stepladder,1.36692303582,left,-1,miss,decision,2,decision2,arc
118,10,calc,2.30019340129,right,-1,miss,arm2,1,arm21,arc
119,10,tongue,1.83357587713,right,-1,miss,arm2,2,arm22,arc
120,10,beaver,1.01673025335,left,-1,miss,arm2,3,arm23,arc
121,11,arc,2.41688136407,space,-1,miss,target,NaN,targetNaN,arc
122,11,trophy,1.03375813994,right,-1,miss,path,1,path1,arc
123,11,astronaut,1.81692652218,right,-1,miss,path,2,path2,arc
124,11,robot,1.15029215463,right,-1,miss,path,3,path3,arc
125,11,watch,3.98360541416,right,-1,miss,decision,1,decision1,arc
126,11,clover,2.25036607985,left,-1,miss,arm1,1,arm11,arc
127,11,radio,1.15026438353,right,-1,miss,arm1,2,arm12,arc
128,11,wing,0.767103125108,left,-1,miss,arm1,3,arm13,arc
129,11,stepladder,1.36710143462,right,-1,miss,decision,2,decision2,arc
130,11,calc,1.66733981296,right,-1,miss,arm2,1,arm21,arc
131,11,tongue,4.10024809814,right,-1,miss,arm2,2,arm22,arc
132,11,beaver,3.23348942492,left,-1,miss,arm2,3,arm23,arc
133,12,arc,0.300267054932,space,0,wrong,target,NaN,targetNaN,arc
134,12,trophy,0.600312243449,right,0,wrong,path,1,path1,arc
135,12,astronaut,0.38414260326,right,0,wrong,path,2,path2,arc
136,12,robot,0.517592514632,right,0,wrong,path,3,path3,arc
137,12,pigeon,0.0169623834081,right,0,wrong,decision,1,decision1,arc
138,12,bus,1.66768121603,right,0,wrong,arm1,1,arm11,arc
139,12,deer,0.683595845243,left,0,wrong,arm1,2,arm12,arc
140,12,fist,0.733659824356,left,0,wrong,arm1,3,arm13,arc
141,12,holly,1.7336486557,right,0,wrong,decision,2,decision2,arc
142,12,match,0.733533949126,right,0,wrong,arm2,1,arm21,arc
143,12,baby,0.766960647423,left,0,wrong,arm2,2,arm22,arc
144,12,arc,2.15025200741,left,0,wrong,arm2,3,arm23,arc
145,13,beaver,1.0503694606,space,1,correct,target,NaN,targetNaN,beaver
146,13,trophy,0.866955183912,right,1,correct,path,1,path1,beaver
147,13,astronaut,0.383588993223,right,1,correct,path,2,path2,beaver
148,13,robot,0.300368177937,right,1,correct,path,3,path3,beaver
149,13,pigeon,0.950368887279,right,1,correct,decision,1,decision1,beaver
150,13,bus,0.833568632836,right,1,correct,arm1,1,arm11,beaver
151,13,deer,0.500363287749,left,1,correct,arm1,2,arm12,beaver
152,13,fist,0.683584978338,left,1,correct,arm1,3,arm13,beaver
153,13,stepladder,1.01692042476,left,1,correct,decision,2,decision2,beaver
154,13,calc,0.750382531434,right,1,correct,arm2,1,arm21,beaver
155,13,tongue,0.916961507872,right,1,correct,arm2,2,arm22,beaver
156,13,beaver,1.16697531799,left,1,correct,arm2,3,arm23,beaver
157,14,arc,0.467008733656,space,-1,miss,target,NaN,targetNaN,arc
158,14,trophy,0.600260625361,right,-1,miss,path,1,path1,arc
159,14,astronaut,0.383632460842,right,-1,miss,path,2,path2,arc
160,14,robot,0.516794096678,right,-1,miss,path,3,path3,arc
161,14,pigeon,6.55017793109,left,-1,miss,decision,1,decision1,arc
162,14,bus,0.716979981633,right,-1,miss,arm1,1,arm11,arc
163,14,deer,1.30031806906,left,-1,miss,arm1,2,arm12,arc
164,14,fist,0.666919322917,left,-1,miss,arm1,3,arm13,arc
165,14,stepladder,0.866678378778,left,-1,miss,decision,2,decision2,arc
166,14,calc,0.717203055741,right,-1,miss,arm2,1,arm21,arc
167,14,tongue,1.01711572777,right,-1,miss,arm2,2,arm22,arc
168,14,beaver,1.1335911816,left,-1,miss,arm2,3,arm23,arc
169,15,arc,2.26702449075,space,-1,miss,target,NaN,targetNaN,arc
170,15,trophy,0.450362397125,right,-1,miss,path,1,path1,arc
171,15,astronaut,0.466950474773,right,-1,miss,path,2,path2,arc
172,15,robot,0.283697390696,right,-1,miss,path,3,path3,arc
173,15,pigeon,0.916950338986,right,-1,miss,decision,1,decision1,arc
174,15,bus,1.26696743933,right,-1,miss,arm1,1,arm11,arc
175,15,deer,0.633734413888,left,-1,miss,arm1,2,arm12,arc
176,15,fist,0.450337040937,left,-1,miss,arm1,3,arm13,arc
177,15,stepladder,0.950253275223,right,-1,miss,decision,2,decision2,arc
178,15,calc,1.00037521124,right,-1,miss,arm2,1,arm21,arc
179,15,tongue,0.684032334015,right,-1,miss,arm2,2,arm22,arc
180,15,beaver,0.550507863285,left,-1,miss,arm2,3,arm23,arc
181,16,beaver,0.800350217149,space,1,correct,target,NaN,targetNaN,beaver
182,16,trophy,0.48360556527,right,1,correct,path,1,path1,beaver
183,16,astronaut,0.416925737401,right,1,correct,path,2,path2,beaver
184,16,robot,0.950250860304,right,1,correct,path,3,path3,beaver
185,16,pigeon,3.18366059405,right,1,correct,decision,1,decision1,beaver
186,16,bus,1.5169042754,right,1,correct,arm1,1,arm11,beaver
187,16,deer,0.683633879526,left,1,correct,arm1,2,arm12,beaver
188,16,fist,3.80027837469,left,1,correct,arm1,3,arm13,beaver
189,16,stepladder,0.700358397793,right,1,correct,decision,2,decision2,beaver
190,16,calc,2.100572597,right,1,correct,arm2,1,arm21,beaver
191,16,tongue,0.766964571783,right,1,correct,arm2,2,arm22,beaver
192,16,beaver,1.05030757957,left,1,correct,arm2,3,arm23,beaver
193,17,arc,0.816962141776,space,-1,miss,target,NaN,targetNaN,arc
194,17,trophy,1.03361988836,right,-1,miss,path,1,path1,arc
195,17,astronaut,2.06690320373,right,-1,miss,path,2,path2,arc
196,17,robot,0.383645440917,right,-1,miss,path,3,path3,arc
197,17,pigeon,1.03362562391,left,-1,miss,decision,1,decision1,arc
198,17,bus,1.03363860352,right,-1,miss,arm1,1,arm11,arc
199,17,deer,0.716993867187,left,-1,miss,arm1,2,arm12,arc
200,17,fist,0.433638483053,left,-1,miss,arm1,3,arm13,arc
201,17,stepladder,0.650329736061,right,-1,miss,decision,2,decision2,arc
202,17,calc,1.73356081452,right,-1,miss,arm2,1,arm21,arc
203,17,tongue,0.683718702057,right,-1,miss,arm2,2,arm22,arc
204,17,beaver,0.683754019672,left,-1,miss,arm2,3,arm23,arc
205,18,beaver,0.783810437191,space,1,correct,target,NaN,targetNaN,beaver
206,18,trophy,2.36701721605,right,1,correct,path,1,path1,beaver
207,18,astronaut,0.316998817725,right,1,correct,path,2,path2,beaver
208,18,robot,0.416989731602,right,1,correct,path,3,path3,beaver
209,18,pigeon,0.883627480129,left,1,correct,decision,1,decision1,beaver
210,18,bus,0.850344466744,right,1,correct,arm1,1,arm11,beaver
211,18,deer,0.683694553329,left,1,correct,arm1,2,arm12,beaver
212,18,fist,0.371081752237,left,1,correct,arm1,3,arm13,beaver
213,18,stepladder,0.833687565289,left,1,correct,decision,2,decision2,beaver
214,18,calc,0.550304108299,right,1,correct,arm2,1,arm21,beaver
215,18,tongue,4.45020392118,right,1,correct,arm2,2,arm22,beaver
216,18,beaver,0.483666540822,left,1,correct,arm2,3,arm23,beaver
217,19,arc,0.60039314162,space,-1,miss,target,NaN,targetNaN,arc
218,19,trophy,2.76692412258,right,-1,miss,path,1,path1,arc
219,19,astronaut,0.46699696104,right,-1,miss,path,2,path2,arc
220,19,robot,0.333666284336,right,-1,miss,path,3,path3,arc
221,19,pigeon,0.91694490565,right,-1,miss,decision,1,decision1,arc
222,19,bus,1.16711477679,right,-1,miss,arm1,1,arm11,arc
223,19,deer,0.600230137585,left,-1,miss,arm1,2,arm12,arc
224,19,fist,0.250287898351,left,-1,miss,arm1,3,arm13,arc
225,19,stepladder,0.75038675731,left,-1,miss,decision,2,decision2,arc
226,19,calc,0.483593189158,right,-1,miss,arm2,1,arm21,arc
227,19,tongue,0.600286887027,right,-1,miss,arm2,2,arm22,arc
228,19,beaver,0.583605535096,left,-1,miss,arm2,3,arm23,arc
229,20,beaver,2.61693775142,space,0,wrong,target,NaN,targetNaN,beaver
230,20,trophy,2.11693126149,right,0,wrong,path,1,path1,beaver
231,20,astronaut,0.816959123127,right,0,wrong,path,2,path2,beaver
232,20,robot,0.450271235546,right,0,wrong,path,3,path3,beaver
233,20,watch,0.783607889432,right,0,wrong,decision,1,decision1,beaver
234,20,clover,4.01689325739,left,0,wrong,arm1,1,arm11,beaver
235,20,radio,1.46683607018,right,0,wrong,arm1,2,arm12,beaver
236,20,wing,0.566929918248,left,0,wrong,arm1,3,arm13,beaver
237,20,stepladder,0.850234288257,right,0,wrong,decision,2,decision2,beaver
238,20,calc,0.700250935741,right,0,wrong,arm2,1,arm21,beaver
239,20,tongue,0.766945252661,right,0,wrong,arm2,2,arm22,beaver
240,20,beaver,0.633605520008,left,0,wrong,arm2,3,arm23,beaver
241,21,beaver,0.300295731751,space,1,correct,target,NaN,targetNaN,beaver
242,21,trophy,0.850333298091,right,1,correct,path,1,path1,beaver
243,21,astronaut,0.400278193643,right,1,correct,path,2,path2,beaver
244,21,robot,0.733931497904,right,1,correct,path,3,path3,beaver
245,21,pigeon,2.16714466084,left,1,correct,decision,1,decision1,beaver
246,21,bus,0.733637184836,right,1,correct,arm1,1,arm11,beaver
247,21,deer,0.883727999404,left,1,correct,arm1,2,arm12,beaver
248,21,fist,0.550448698923,left,1,correct,arm1,3,arm13,beaver
249,21,stepladder,0.783683052519,right,1,correct,decision,2,decision2,beaver
250,21,calc,0.733549645636,right,1,correct,arm2,1,arm21,beaver
251,21,tongue,0.484481560998,right,1,correct,arm2,2,arm22,beaver
252,21,beaver,0.517002077773,left,1,correct,arm2,3,arm23,beaver
253,22,arc,1.56698847888,space,-1,miss,target,NaN,targetNaN,arc
254,22,trophy,1.8837346402,right,-1,miss,path,1,path1,arc
255,22,astronaut,0.46783099859,right,-1,miss,path,2,path2,arc
256,22,robot,0.316880488768,right,-1,miss,path,3,path3,arc
257,22,pigeon,0.600341825513,right,-1,miss,decision,1,decision1,arc
258,22,bus,2.9172449538,right,-1,miss,arm1,1,arm11,arc
259,22,deer,0.733558097854,left,-1,miss,arm1,2,arm12,arc
260,22,fist,0.516942309681,left,-1,miss,arm1,3,arm13,arc
261,22,stepladder,0.967074991902,left,-1,miss,decision,2,decision2,arc
262,22,calc,0.867647347506,right,-1,miss,arm2,1,arm21,arc
263,22,tongue,8.71682301466,right,-1,miss,arm2,2,arm22,arc
264,22,beaver,0.733626921661,left,-1,miss,arm2,3,arm23,arc
265,23,beaver,1.06724943616,space,1,correct,target,NaN,targetNaN,beaver
266,23,trophy,0.450434541563,right,1,correct,path,1,path1,beaver
267,23,astronaut,0.233595075784,right,1,correct,path,2,path2,beaver
268,23,robot,0.233655447373,right,1,correct,path,3,path3,beaver
269,23,pigeon,2.03360570106,left,1,correct,decision,1,decision1,beaver
270,23,bus,0.733684275066,right,1,correct,arm1,1,arm11,beaver
271,23,deer,0.550097032683,left,1,correct,arm1,2,arm12,beaver
272,23,fist,0.350381444674,left,1,correct,arm1,3,arm13,beaver
273,23,stepladder,0.483794830972,right,1,correct,decision,2,decision2,beaver
274,23,calc,0.566889167298,right,1,correct,arm2,1,arm21,beaver
275,23,tongue,0.500295671169,right,1,correct,arm2,2,arm22,beaver
276,23,beaver,0.433713344159,left,1,correct,arm2,3,arm23,beaver
277,24,arc,1.0835827447,space,-1,miss,target,NaN,targetNaN,arc
278,24,trophy,0.700848315377,right,-1,miss,path,1,path1,arc
279,24,astronaut,0.183636445552,right,-1,miss,path,2,path2,arc
280,24,robot,0.266931819962,right,-1,miss,path,3,path3,arc
281,24,pigeon,0.9003426407,right,-1,miss,decision,1,decision1,arc
282,24,bus,0.800263885409,right,-1,miss,arm1,1,arm11,arc
283,24,deer,3.16688747681,left,-1,miss,arm1,2,arm12,arc
284,24,fist,0.31674495386,left,-1,miss,arm1,3,arm13,arc
285,24,stepladder,0.750233714702,left,-1,miss,decision,2,decision2,arc
286,24,calc,0.450256444747,right,-1,miss,arm2,1,arm21,arc
287,24,tongue,0.450243464671,right,-1,miss,arm2,2,arm22,arc
288,24,beaver,0.333623118233,left,-1,miss,arm2,3,arm23,arc
289,25,arc,0.333598365774,space,-1,miss,target,NaN,targetNaN,arc
290,25,trophy,0.36703744065,right,-1,miss,path,1,path1,arc
291,25,astronaut,0.250250166049,right,-1,miss,path,2,path2,arc
292,25,robot,0.250347666442,right,-1,miss,path,3,path3,arc
293,25,pigeon,1.05031905044,left,-1,miss,decision,1,decision1,arc
294,25,bus,0.666952527361,right,-1,miss,arm1,1,arm11,arc
295,25,deer,0.517025018809,left,-1,miss,arm1,2,arm12,arc
296,25,fist,0.550578498514,left,-1,miss,arm1,3,arm13,arc
297,25,stepladder,0.683667386184,left,-1,miss,decision,2,decision2,arc
298,25,calc,0.450292365858,right,-1,miss,arm2,1,arm21,arc
299,25,tongue,0.483720573597,right,-1,miss,arm2,2,arm22,arc
300,25,beaver,0.266906463541,left,-1,miss,arm2,3,arm23,arc
301,26,beaver,0.317083338043,space,1,correct,target,NaN,targetNaN,beaver
302,26,trophy,0.383944583591,right,1,correct,path,1,path1,beaver
303,26,astronaut,0.317093299702,right,1,correct,path,2,path2,beaver
304,26,robot,0.200272216694,right,1,correct,path,3,path3,beaver
305,26,pigeon,3.73356594611,right,1,correct,decision,1,decision1,beaver
306,26,bus,0.400295097847,right,1,correct,arm1,1,arm11,beaver
307,26,deer,0.466975831194,left,1,correct,arm1,2,arm12,beaver
308,26,fist,0.200290328357,left,1,correct,arm1,3,arm13,beaver
309,26,stepladder,0.0670067416504,left,1,correct,decision,2,decision2,beaver
310,26,calc,1.08361534565,right,1,correct,arm2,1,arm21,beaver
311,26,tongue,0.500368721317,right,1,correct,arm2,2,arm22,beaver
312,26,beaver,0.733606093563,left,1,correct,arm2,3,arm23,beaver
313,27,arc,0.50057881535,space,-1,miss,target,NaN,targetNaN,arc
314,27,trophy,0.300047904951,right,-1,miss,path,1,path1,arc
315,27,astronaut,0.217050164007,right,-1,miss,path,2,path2,arc
316,27,robot,0.233588736504,right,-1,miss,path,3,path3,arc
317,27,pigeon,1.06697715912,left,-1,miss,decision,1,decision1,arc
318,27,bus,0.383672910044,right,-1,miss,arm1,1,arm11,arc
319,27,deer,0.766944045201,left,-1,miss,arm1,2,arm12,arc
320,27,fist,0.366929978598,left,-1,miss,arm1,3,arm13,arc
321,27,stepladder,0.550316786394,right,-1,miss,decision,2,decision2,arc
322,27,calc,0.550304108299,right,-1,miss,arm2,1,arm21,arc
323,27,tongue,0.500243147602,right,-1,miss,arm2,2,arm22,arc
324,27,beaver,0.216980132507,left,-1,miss,arm2,3,arm23,arc
325,28,beaver,0.350240476197,space,1,correct,target,NaN,targetNaN,beaver
326,28,trophy,0.334673890844,right,1,correct,path,1,path1,beaver
327,28,astronaut,0.184241975425,right,1,correct,path,2,path2,beaver
328,28,robot,0.233995944727,right,1,correct,path,3,path3,beaver
329,28,pigeon,1.76701317122,left,1,correct,decision,1,decision1,beaver
330,28,bus,0.550311051076,right,1,correct,arm1,1,arm11,beaver
331,28,deer,0.517135197762,left,1,correct,arm1,2,arm12,beaver
332,28,fist,0.233583001187,left,1,correct,arm1,3,arm13,beaver
333,28,stepladder,0.550265772035,right,1,correct,decision,2,decision2,beaver
334,28,calc,0.48360556527,right,1,correct,arm2,1,arm21,beaver
335,28,tongue,0.483727818355,right,1,correct,arm2,2,arm22,beaver
336,28,beaver,0.250374532072,left,1,correct,arm2,3,arm23,beaver
337,29,beaver,0.333708544495,space,1,correct,target,NaN,targetNaN,beaver
338,29,trophy,0.300437303493,right,1,correct,path,1,path1,beaver
339,29,astronaut,0.250864147907,right,1,correct,path,2,path2,beaver
340,29,robot,0.183737568324,right,1,correct,path,3,path3,beaver
341,29,pigeon,1.10027073766,right,1,correct,decision,1,decision1,beaver
342,29,bus,1.15027313749,right,1,correct,arm1,1,arm11,beaver
343,29,deer,0.433592298301,left,1,correct,arm1,2,arm12,beaver
344,29,fist,0.216925797751,left,1,correct,arm1,3,arm13,beaver
345,29,stepladder,1.05033535068,left,1,correct,decision,2,decision2,beaver
346,29,calc,0.416936000809,right,1,correct,arm2,1,arm21,beaver
347,29,tongue,0.28449912928,right,1,correct,arm2,2,arm22,beaver
348,29,beaver,0.63364476175,left,1,correct,arm2,3,arm23,beaver
349,30,beaver,0.483592585195,space,1,correct,target,NaN,targetNaN,beaver
350,30,trophy,0.616959485225,right,1,correct,path,1,path1,beaver
351,30,astronaut,0.166947848629,right,1,correct,path,2,path2,beaver
352,30,robot,0.267025094479,right,1,correct,path,3,path3,beaver
353,30,pigeon,1.21696473775,right,1,correct,decision,1,decision1,beaver
354,30,bus,0.633631781675,right,1,correct,arm1,1,arm11,beaver
355,30,deer,0.500330385054,left,1,correct,arm1,2,arm12,beaver
356,30,fist,0.233454409288,left,1,correct,arm1,3,arm13,beaver
357,30,stepladder,0.766986607341,left,1,correct,decision,2,decision2,beaver
358,30,calc,0.516923896037,right,1,correct,arm2,1,arm21,beaver
359,30,tongue,1.25023718597,right,1,correct,arm2,2,arm22,beaver
360,30,beaver,0.383646346396,left,1,correct,arm2,3,arm23,beaver
361,31,arc,0.633550581522,space,-1,miss,target,NaN,targetNaN,arc
362,31,trophy,0.416994863423,right,-1,miss,path,1,path1,arc
363,31,astronaut,0.300324106356,right,-1,miss,path,2,path2,arc
364,31,robot,0.350283943815,right,-1,miss,path,3,path3,arc
365,31,watch,2.8169256167,right,-1,miss,decision,1,decision1,arc
366,31,clover,1.7502605801,left,-1,miss,arm1,1,arm11,arc
367,31,radio,0.500082256738,right,-1,miss,arm1,2,arm12,arc
368,31,wing,0.433591393055,left,-1,miss,arm1,3,arm13,arc
369,31,stepladder,1.20028730971,left,-1,miss,decision,2,decision2,arc
370,31,calc,0.516912425403,right,-1,miss,arm2,1,arm21,arc
371,31,tongue,0.416936604306,right,-1,miss,arm2,2,arm22,arc
372,31,beaver,0.300547180464,left,-1,miss,arm2,3,arm23,arc
373,32,arc,0.56718559307,space,-1,miss,target,NaN,targetNaN,arc
374,32,trophy,0.233583001187,right,-1,miss,path,1,path1,arc
375,32,astronaut,0.166950867279,right,-1,miss,path,2,path2,arc
376,32,robot,0.200478990562,right,-1,miss,path,3,path3,arc
377,32,pigeon,0.683617277304,right,-1,miss,decision,1,decision1,arc
378,32,bus,0.58359436621,right,-1,miss,arm1,1,arm11,arc
379,32,deer,0.783600041177,left,-1,miss,arm1,2,arm12,arc
380,32,fist,0.466921496205,left,-1,miss,arm1,3,arm13,arc
381,32,stepladder,0.817049077014,left,-1,miss,decision,2,decision2,arc
382,32,calc,0.466937192949,right,-1,miss,arm2,1,arm21,arc
383,32,tongue,0.550270299893,right,-1,miss,arm2,2,arm22,arc
384,32,beaver,0.467380926246,left,-1,miss,arm2,3,arm23,arc
385,33,arc,0.450258557685,space,-1,miss,target,NaN,targetNaN,arc
386,33,trophy,0.450272744987,right,-1,miss,path,1,path1,arc
387,33,astronaut,0.416951395571,right,-1,miss,path,2,path2,arc
388,33,robot,0.200280366931,right,-1,miss,path,3,path3,arc
389,33,pigeon,2.13457675232,left,-1,miss,decision,1,decision1,arc
390,33,bus,1.000242393,right,-1,miss,arm1,1,arm11,arc
391,33,deer,0.600276322104,left,-1,miss,arm1,2,arm12,arc
392,33,fist,0.300297542708,left,-1,miss,arm1,3,arm13,arc
393,33,stepladder,0.600308922818,left,-1,miss,decision,2,decision2,arc
394,33,calc,0.500337025849,right,-1,miss,arm2,1,arm21,arc
395,33,tongue,0.516963137779,right,-1,miss,arm2,2,arm22,arc
396,33,beaver,1.08361383621,left,-1,miss,arm2,3,arm23,arc
397,34,arc,7.58349414892,space,-1,miss,target,NaN,targetNaN,arc
398,34,trophy,0.333627042361,right,-1,miss,path,1,path1,arc
399,34,astronaut,0.416925435653,right,-1,miss,path,2,path2,arc
400,34,robot,0.233592660632,right,-1,miss,path,3,path3,arc
401,34,pigeon,1.11699495395,left,-1,miss,decision,1,decision1,arc
402,34,bus,0.550290222745,right,-1,miss,arm1,1,arm11,arc
403,34,deer,0.500268805772,left,-1,miss,arm1,2,arm12,arc
404,34,fist,0.200248671696,left,-1,miss,arm1,3,arm13,arc
405,34,stepladder,0.733697556891,left,-1,miss,decision,2,decision2,arc
406,34,calc,1.05034440663,right,-1,miss,arm2,1,arm21,arc
407,34,tongue,0.400285136187,right,-1,miss,arm2,2,arm22,arc
408,34,beaver,0.250418603653,left,-1,miss,arm2,3,arm23,arc
409,35,beaver,6.38359110616,space,0,wrong,target,NaN,targetNaN,beaver
410,35,trophy,0.916927397717,right,0,wrong,path,1,path1,beaver
411,35,astronaut,0.550343350042,right,0,wrong,path,2,path2,beaver
412,35,robot,0.583587725414,right,0,wrong,path,3,path3,beaver
413,35,watch,2.76692261337,left,0,wrong,decision,1,decision1,beaver
414,35,clover,2.96690413938,left,0,wrong,arm1,1,arm11,beaver
415,35,radio,0.683604297461,right,0,wrong,arm1,2,arm12,beaver
416,35,wing,0.616979106097,left,0,wrong,arm1,3,arm13,beaver
417,35,stepladder,1.95061943051,left,0,wrong,decision,2,decision2,beaver
418,35,calc,0.516997549916,right,0,wrong,arm2,1,arm21,beaver
419,35,tongue,0.766932574566,right,0,wrong,arm2,2,arm22,beaver
420,35,beaver,0.501005946193,left,0,wrong,arm2,3,arm23,beaver
421,36,beaver,0.516969778808,space,1,correct,target,NaN,targetNaN,beaver
422,36,trophy,0.383637592662,right,1,correct,path,1,path1,beaver
423,36,astronaut,0.383668382186,right,1,correct,path,2,path2,beaver
424,36,robot,0.200856012758,right,1,correct,path,3,path3,beaver
425,36,pigeon,0.850383406738,right,1,correct,decision,1,decision1,beaver
426,36,bus,0.616916319355,right,1,correct,arm1,1,arm11,beaver
427,36,deer,0.401024993742,left,1,correct,arm1,2,arm12,beaver
428,36,fist,0.216936664889,left,1,correct,arm1,3,arm13,beaver
429,36,stepladder,0.633706341032,right,1,correct,decision,2,decision2,beaver
430,36,calc,0.500287521165,right,1,correct,arm2,1,arm21,beaver
431,36,tongue,0.500477994327,right,1,correct,arm2,2,arm22,beaver
432,36,beaver,0.316931201145,left,1,correct,arm2,3,arm23,beaver
433,37,arc,0.516924499767,space,-1,miss,target,NaN,targetNaN,arc
434,37,trophy,0.567398102023,right,-1,miss,path,1,path1,arc
435,37,astronaut,0.300249245251,right,-1,miss,path,2,path2,arc
436,37,robot,0.233598094201,right,-1,miss,path,3,path3,arc
437,37,pigeon,3.06693912484,left,-1,miss,decision,1,decision1,arc
438,37,bus,0.46693296684,right,-1,miss,arm1,1,arm11,arc
439,37,deer,0.550248566084,left,-1,miss,arm1,2,arm12,arc
440,37,fist,0.200258633122,left,-1,miss,arm1,3,arm13,arc
441,37,stepladder,0.950307307765,left,-1,miss,decision,2,decision2,arc
442,37,calc,0.483619450824,right,-1,miss,arm2,1,arm21,arc
443,37,tongue,0.433726324001,right,-1,miss,arm2,2,arm22,arc
444,37,beaver,0.250354005489,left,-1,miss,arm2,3,arm23,arc
445,38,arc,3.05037006433,space,-1,miss,target,NaN,targetNaN,arc
446,38,trophy,0.450459294021,right,-1,miss,path,1,path1,arc
447,38,astronaut,0.266902539646,right,-1,miss,path,2,path2,arc
448,38,robot,0.3335908195,right,-1,miss,path,3,path3,arc
449,38,watch,5.43360044877,right,-1,miss,decision,1,decision1,arc
450,38,clover,2.38356574997,left,-1,miss,arm1,1,arm11,arc
451,38,radio,0.450359378709,right,-1,miss,arm1,2,arm12,arc
452,38,wing,0.35025556921,left,-1,miss,arm1,3,arm13,arc
453,38,stepladder,1.06700915634,right,-1,miss,decision,2,decision2,arc
454,38,calc,0.616947712842,right,-1,miss,arm2,1,arm21,arc
455,38,tongue,1.75024971296,right,-1,miss,arm2,2,arm22,arc
456,38,beaver,1.81712031597,left,-1,miss,arm2,3,arm23,arc
457,39,beaver,1.38360499172,space,1,correct,target,NaN,targetNaN,beaver
458,39,trophy,0.266934838612,right,1,correct,path,1,path1,beaver
459,39,astronaut,0.200093516149,right,1,correct,path,2,path2,beaver
460,39,robot,0.183581808815,right,1,correct,path,3,path3,beaver
461,39,pigeon,0.666971846484,left,1,correct,decision,1,decision1,beaver
462,39,bus,0.417306985939,right,1,correct,arm1,1,arm11,beaver
463,39,deer,0.516926310956,left,1,correct,arm1,2,arm12,beaver
464,39,fist,0.217339647003,left,1,correct,arm1,3,arm13,beaver
465,39,stepladder,0.933549887268,left,1,correct,decision,2,decision2,beaver
466,39,calc,0.450272744987,right,1,correct,arm2,1,arm21,beaver
467,39,tongue,0.500264881644,right,1,correct,arm2,2,arm22,beaver
468,39,beaver,0.200274329865,left,1,correct,arm2,3,arm23,beaver
469,40,beaver,0.583591649309,space,1,correct,target,NaN,targetNaN,beaver
470,40,trophy,0.267040187493,right,1,correct,path,1,path1,beaver
471,40,astronaut,0.350293603493,right,1,correct,path,2,path2,beaver
472,40,robot,0.183551019058,right,1,correct,path,3,path3,beaver
473,40,pigeon,1.66695584799,right,1,correct,decision,1,decision1,beaver
474,40,bus,0.516927518416,right,1,correct,arm1,1,arm11,beaver
475,40,deer,0.750261183828,left,1,correct,arm1,2,arm12,beaver
476,40,fist,0.216941494495,left,1,correct,arm1,3,arm13,beaver
477,40,stepladder,1.70003510639,left,1,correct,decision,2,decision2,beaver
478,40,calc,0.41693056724,right,1,correct,arm2,1,arm21,beaver
479,40,tongue,1.33450152888,right,1,correct,arm2,2,arm22,beaver
480,40,beaver,0.550281468546,left,1,correct,arm2,3,arm23,beaver
481,41,beaver,0.550357839325,space,1,correct,target,NaN,targetNaN,beaver
482,41,trophy,0.300320785958,right,1,correct,path,1,path1,beaver
483,41,astronaut,0.150254120352,right,1,correct,path,2,path2,beaver
484,41,robot,0.150234801229,right,1,correct,path,3,path3,beaver
485,41,pigeon,1.01717308094,left,1,correct,decision,1,decision1,beaver
486,41,bus,0.416921813274,right,1,correct,arm1,1,arm11,beaver
487,41,deer,0.700328211766,left,1,correct,arm1,2,arm12,beaver
488,41,fist,0.350314129842,left,1,correct,arm1,3,arm13,beaver
489,41,stepladder,0.483712121611,right,1,correct,decision,2,decision2,beaver
490,41,calc,0.783674600534,right,1,correct,arm2,1,arm21,beaver
491,41,tongue,0.533577779075,right,1,correct,arm2,2,arm22,beaver
492,41,beaver,0.250015621306,left,1,correct,arm2,3,arm23,beaver
493,42,beaver,0.733556286665,space,1,correct,target,NaN,targetNaN,beaver
494,42,trophy,0.51691695326,right,1,correct,path,1,path1,beaver
495,42,astronaut,0.23377377633,right,1,correct,path,2,path2,beaver
496,42,robot,0.233595679281,right,1,correct,path,3,path3,beaver
497,42,pigeon,1.40028543817,left,1,correct,decision,1,decision1,beaver
498,42,bus,0.383583257906,right,1,correct,arm1,1,arm11,beaver
499,42,deer,0.466952587944,left,1,correct,arm1,2,arm12,beaver
500,42,fist,0.266919443617,left,1,correct,arm1,3,arm13,beaver
501,42,stepladder,0.416916681686,right,1,correct,decision,2,decision2,beaver
502,42,calc,0.450279989513,right,1,correct,arm2,1,arm21,beaver
503,42,tongue,0.466923307395,right,1,correct,arm2,2,arm22,beaver
504,42,beaver,0.316975272493,left,1,correct,arm2,3,arm23,beaver
505,43,beaver,0.400282117771,space,1,correct,target,NaN,targetNaN,beaver
506,43,trophy,0.233585718088,right,1,correct,path,1,path1,beaver
507,43,astronaut,0.183609881904,right,1,correct,path,2,path2,beaver
508,43,robot,0.300248641754,right,1,correct,path,3,path3,beaver
509,43,pigeon,0.650309813442,right,1,correct,decision,1,decision1,beaver
510,43,bus,0.500287520932,right,1,correct,arm1,1,arm11,beaver
511,43,deer,0.500263070455,left,1,correct,arm1,2,arm12,beaver
512,43,fist,0.250348270172,left,1,correct,arm1,3,arm13,beaver
513,43,stepladder,0.550334294094,right,1,correct,decision,2,decision2,beaver
514,43,calc,0.48358352948,right,1,correct,arm2,1,arm21,beaver
515,43,tongue,0.45032949443,right,1,correct,arm2,2,arm22,beaver
516,43,beaver,0.217029939173,left,1,correct,arm2,3,arm23,beaver
517,44,arc,2.36691156495,space,-1,miss,target,NaN,targetNaN,arc
518,44,trophy,0.500257033156,right,-1,miss,path,1,path1,arc
519,44,astronaut,0.316969839158,right,-1,miss,path,2,path2,arc
520,44,robot,0.483574473765,right,-1,miss,path,3,path3,arc
521,44,pigeon,1.11710633989,right,-1,miss,decision,1,decision1,arc
522,44,bus,0.450383527437,right,-1,miss,arm1,1,arm11,arc
523,44,deer,0.783376967069,left,-1,miss,arm1,2,arm12,arc
524,44,fist,0.700258180266,left,-1,miss,arm1,3,arm13,arc
525,44,stepladder,1.25031536748,right,-1,miss,decision,2,decision2,arc
526,44,calc,0.583604629384,right,-1,miss,arm2,1,arm21,arc
527,44,tongue,0.516707160976,right,-1,miss,arm2,2,arm22,arc
528,44,beaver,0.500279974425,left,-1,miss,arm2,3,arm23,arc
529,45,beaver,3.11687813443,space,1,correct,target,NaN,targetNaN,beaver
530,45,trophy,0.500373550924,right,1,correct,path,1,path1,beaver
531,45,astronaut,0.333647266962,right,1,correct,path,2,path2,beaver
532,45,robot,0.666925661964,right,1,correct,path,3,path3,beaver
533,45,pigeon,0.883606651798,left,1,correct,decision,1,decision1,beaver
534,45,bus,0.416918794625,right,1,correct,arm1,1,arm11,beaver
535,45,deer,0.983778681606,left,1,correct,arm1,2,arm12,beaver
536,45,fist,0.333583876723,left,1,correct,arm1,3,arm13,beaver
537,45,stepladder,0.466957115801,right,1,correct,decision,2,decision2,beaver
538,45,calc,0.616946203634,right,1,correct,arm2,1,arm21,beaver
539,45,tongue,0.466938400408,right,1,correct,arm2,2,arm22,beaver
540,45,beaver,0.200247765984,left,1,correct,arm2,3,arm23,beaver
541,46,arc,39.0164730691,space,1,correct,target,NaN,targetNaN,arc
542,46,trophy,0.500319518149,right,1,correct,path,1,path1,arc
543,46,astronaut,0.183588147862,right,1,correct,path,2,path2,arc
544,46,robot,0.233760192525,right,1,correct,path,3,path3,arc
545,46,watch,0.916963922791,left,1,correct,decision,1,decision1,arc
546,46,clover,4.53353431122,left,1,correct,arm1,1,arm11,arc
547,46,radio,0.600253682816,right,1,correct,arm1,2,arm12,arc
548,46,wing,0.333691942273,left,1,correct,arm1,3,arm13,arc
549,46,holly,1.15028792853,right,1,correct,decision,2,decision2,arc
550,46,match,3.25022450788,right,1,correct,arm2,1,arm21,arc
551,46,baby,0.850254512625,left,1,correct,arm2,2,arm22,arc
552,46,arc,2.58356085978,left,1,correct,arm2,3,arm23,arc
553,47,arc,0.716934400843,space,1,correct,target,NaN,targetNaN,arc
554,47,trophy,0.450094044209,right,1,correct,path,1,path1,arc
555,47,astronaut,0.383603784023,right,1,correct,path,2,path2,arc
556,47,robot,0.166937887436,right,1,correct,path,3,path3,arc
557,47,watch,0.700394016923,left,1,correct,decision,1,decision1,arc
558,47,clover,0.917077723658,left,1,correct,arm1,1,arm11,arc
559,47,radio,0.400318340864,right,1,correct,arm1,2,arm12,arc
560,47,wing,0.283605927369,left,1,correct,arm1,3,arm13,arc
561,47,holly,0.850396084832,right,1,correct,decision,2,decision2,arc
562,47,match,0.650340602966,right,1,correct,arm2,1,arm21,arc
563,47,baby,0.516904879129,left,1,correct,arm2,2,arm22,arc
564,47,arc,2.35037238873,left,1,correct,arm2,3,arm23,arc
565,48,beaver,0.417047386756,space,1,correct,target,NaN,targetNaN,beaver
566,48,trophy,0.217072199564,right,1,correct,path,1,path1,beaver
567,48,astronaut,0.200237804791,right,1,correct,path,2,path2,beaver
568,48,robot,0.233645787928,right,1,correct,path,3,path3,beaver
569,48,pigeon,0.73341199779,right,1,correct,decision,1,decision1,beaver
570,48,bus,0.533618228277,right,1,correct,arm1,1,arm11,beaver
571,48,deer,0.433605278376,left,1,correct,arm1,2,arm12,beaver
572,48,fist,0.21705891774,left,1,correct,arm1,3,arm13,beaver
573,48,stepladder,0.917021577712,right,1,correct,decision,2,decision2,beaver
574,48,calc,0.500316801248,right,1,correct,arm2,1,arm21,beaver
575,48,tongue,0.46704374929,right,1,correct,arm2,2,arm22,beaver
576,48,beaver,0.516936272383,left,1,correct,arm2,3,arm23,beaver
577,49,beaver,0.366981294705,space,1,correct,target,NaN,targetNaN,beaver
578,49,trophy,0.33364817244,right,1,correct,path,1,path1,beaver
579,49,astronaut,0.116960541811,right,1,correct,path,2,path2,beaver
580,49,robot,0.150258044479,right,1,correct,path,3,path3,beaver
581,49,pigeon,0.850640590768,right,1,correct,decision,1,decision1,beaver
582,49,bus,0.400279702852,right,1,correct,arm1,1,arm11,beaver
583,49,deer,0.500076823169,left,1,correct,arm1,2,arm12,beaver
584,49,fist,0.167023917194,left,1,correct,arm1,3,arm13,beaver
585,49,stepladder,0.533614907647,right,1,correct,decision,2,decision2,beaver
586,49,calc,0.700290177483,right,1,correct,arm2,1,arm21,beaver
587,49,tongue,0.433592600515,right,1,correct,arm2,2,arm22,beaver
588,49,beaver,0.350311714923,left,1,correct,arm2,3,arm23,beaver
589,50,arc,0.500282389345,space,1,correct,target,NaN,targetNaN,arc
590,50,trophy,0.233722460223,right,1,correct,path,1,path1,arc
591,50,astronaut,0.216970473062,right,1,correct,path,2,path2,arc
592,50,robot,0.250272201607,right,1,correct,path,3,path3,arc
593,50,watch,0.700416052714,left,1,correct,decision,1,decision1,arc
594,50,clover,1.66694890521,left,1,correct,arm1,1,arm11,arc
595,50,radio,0.433574790601,right,1,correct,arm1,2,arm12,arc
596,50,wing,0.266920047579,left,1,correct,arm1,3,arm13,arc
597,50,holly,0.766780135687,right,1,correct,decision,2,decision2,arc
598,50,match,0.466926024295,right,1,correct,arm2,1,arm21,arc
599,50,baby,0.400263402378,left,1,correct,arm2,2,arm22,arc
600,50,arc,2.63358559739,left,1,correct,arm2,3,arm23,arc
