pic_index,trial_num,pic_name,rt,resp,feedback_code,feedback,segment,segment_index,pic_type,trial_target
1,1,beaver,3.78360601304,space,-1,miss,target,NaN,targetNaN,beaver
2,1,trophy,16.4000413547,right,-1,miss,path,1,path1,beaver
3,1,astronaut,4.0502650326,right,-1,miss,path,2,path2,beaver
4,1,robot,0.916917411254,left,-1,miss,path,3,path3,beaver
5,1,pigeon,15.9000763704,left,-1,miss,decision,1,decision1,beaver
6,1,bus,1.25024933591,right,-1,miss,arm1,1,arm11,beaver
7,1,deer,0.883726756821,left,-1,miss,arm1,2,arm12,beaver
8,1,fist,1.05023635595,left,-1,miss,arm1,3,arm13,beaver
9,1,holly,2.95025839169,left,-1,miss,decision,2,decision2,beaver
10,1,match,1.3835743178,right,-1,miss,arm2,1,arm21,beaver
11,1,baby,1.85023575223,left,-1,miss,arm2,2,arm22,beaver
12,1,arc,1.60024058199,left,-1,miss,arm2,3,arm23,beaver
13,2,arc,1.8670034412,space,0,wrong,target,NaN,targetNaN,arc
14,2,trophy,1.88400899541,right,0,wrong,path,1,path1,arc
15,2,astronaut,0.566907148032,right,0,wrong,path,2,path2,arc
16,2,robot,0.533662762618,left,0,wrong,path,3,path3,arc
17,2,pigeon,1.41694638976,right,0,wrong,decision,1,decision1,arc
18,2,bus,1.31798901232,right,0,wrong,arm1,1,arm11,arc
19,2,deer,0.61691348708,left,0,wrong,arm1,2,arm12,arc
20,2,fist,1.00023212992,left,0,wrong,arm1,3,arm13,arc
21,2,holly,1.05027106979,right,0,wrong,decision,2,decision2,arc
22,2,match,3.06689597923,right,0,wrong,arm2,1,arm21,arc
23,2,baby,1.13357673267,left,0,wrong,arm2,2,arm22,arc
24,2,arc,2.70023363922,left,0,wrong,arm2,3,arm23,arc
25,3,arc,1.10029401111,space,0,wrong,target,NaN,targetNaN,arc
26,3,trophy,0.950417773485,right,0,wrong,path,1,path1,arc
27,3,astronaut,0.41693008935,right,0,wrong,path,2,path2,arc
28,3,robot,1.31695514369,left,0,wrong,path,3,path3,arc
29,3,pigeon,0.783645556628,right,0,wrong,decision,1,decision1,arc
30,3,bus,1.10036977783,right,0,wrong,arm1,1,arm11,arc
31,3,deer,0.41695786042,left,0,wrong,arm1,2,arm12,arc
32,3,fist,1.31693763584,left,0,wrong,arm1,3,arm13,arc
33,3,holly,2.01698865008,left,0,wrong,decision,2,decision2,arc
34,3,match,2.48358578846,right,0,wrong,arm2,1,arm21,arc
35,3,baby,1.95023877083,left,0,wrong,arm2,2,arm22,arc
36,3,arc,1.98356828061,left,0,wrong,arm2,3,arm23,arc
37,4,beaver,2.05030759479,space,-1,miss,target,NaN,targetNaN,beaver
38,4,trophy,1.26714169283,right,-1,miss,path,1,path1,beaver
39,4,astronaut,0.533540509539,right,-1,miss,path,2,path2,beaver
40,4,robot,0.566938239557,left,-1,miss,path,3,path3,beaver
41,4,pigeon,0.933630765516,right,-1,miss,decision,1,decision1,beaver
42,4,bus,0.933599673992,right,-1,miss,arm1,1,arm11,beaver
43,4,deer,0.666940654432,left,-1,miss,arm1,2,arm12,beaver
44,4,fist,1.01702608066,left,-1,miss,arm1,3,arm13,beaver
45,4,holly,0.950314839411,left,-1,miss,decision,2,decision2,beaver
46,4,match,1.55027257909,right,-1,miss,arm2,1,arm21,beaver
47,4,baby,0.733564054577,left,-1,miss,arm2,2,arm22,beaver
48,4,arc,0.800251750785,left,-1,miss,arm2,3,arm23,beaver
49,5,beaver,0.78360571118,space,-1,miss,target,NaN,targetNaN,beaver
50,5,trophy,0.733721927072,right,-1,miss,path,1,path1,beaver
51,5,astronaut,0.500258089834,right,-1,miss,path,2,path2,beaver
52,5,robot,0.533590014489,left,-1,miss,path,3,path3,beaver
53,5,pigeon,3.31725217339,right,-1,miss,decision,1,decision1,beaver
54,5,bus,0.600253561941,right,-1,miss,arm1,1,arm11,beaver
55,5,deer,0.700263221443,left,-1,miss,arm1,2,arm12,beaver
56,5,fist,0.583622917169,left,-1,miss,arm1,3,arm13,beaver
57,5,holly,0.550279521854,right,-1,miss,decision,2,decision2,beaver
58,5,match,0.700280729292,right,-1,miss,arm2,1,arm21,beaver
59,5,baby,0.850290388795,left,-1,miss,arm2,2,arm22,beaver
60,5,arc,0.683572808501,left,-1,miss,arm2,3,arm23,beaver
61,6,beaver,0.966971142236,space,-1,miss,target,NaN,targetNaN,beaver
62,6,trophy,6.06665086936,right,-1,miss,path,1,path1,beaver
63,6,astronaut,0.483612955808,right,-1,miss,path,2,path2,beaver
64,6,robot,0.533707135957,left,-1,miss,path,3,path3,beaver
65,6,pigeon,1.48448049988,right,-1,miss,decision,1,decision1,beaver
66,6,bus,4.66688662159,right,-1,miss,arm1,1,arm11,beaver
67,6,deer,0.53387798841,left,-1,miss,arm1,2,arm12,beaver
68,6,fist,0.367138372374,left,-1,miss,arm1,3,arm13,beaver
69,6,holly,1.56699378169,left,-1,miss,decision,2,decision2,beaver
70,6,match,2.4005173871,right,-1,miss,arm2,1,arm21,beaver
71,6,baby,0.950261108428,left,-1,miss,arm2,2,arm22,beaver
72,6,arc,0.933369657087,left,-1,miss,arm2,3,arm23,beaver
73,7,arc,2.28367695001,space,0,wrong,target,NaN,targetNaN,arc
74,7,trophy,1.11692435402,right,0,wrong,path,1,path1,arc
75,7,astronaut,0.883682383481,right,0,wrong,path,2,path2,arc
76,7,robot,0.516911374063,left,0,wrong,path,3,path3,arc
77,7,pigeon,1.05033113982,right,0,wrong,decision,1,decision1,arc
78,7,bus,5.06683560734,right,0,wrong,arm1,1,arm11,arc
79,7,deer,0.783576430813,left,0,wrong,arm1,2,arm12,arc
80,7,fist,0.200264127023,left,0,wrong,arm1,3,arm13,arc
81,7,holly,0.667528676649,left,0,wrong,decision,2,decision2,arc
82,7,match,0.500303066892,right,0,wrong,arm2,1,arm21,arc
83,7,baby,1.83356978991,left,0,wrong,arm2,2,arm22,arc
84,7,arc,2.10091312485,left,0,wrong,arm2,3,arm23,arc
85,8,beaver,1.31696601063,space,-1,miss,target,NaN,targetNaN,beaver
86,8,trophy,2.81686669886,right,-1,miss,path,1,path1,beaver
87,8,astronaut,0.233591221928,right,-1,miss,path,2,path2,beaver
88,8,robot,0.250267749336,left,-1,miss,path,3,path3,beaver
89,8,pigeon,0.850262919585,right,-1,miss,decision,1,decision1,beaver
90,8,bus,0.967075283748,right,-1,miss,arm1,1,arm11,beaver
91,8,deer,0.550298840861,left,-1,miss,arm1,2,arm12,beaver
92,8,fist,0.217119657089,left,-1,miss,arm1,3,arm13,beaver
93,8,holly,0.516938239554,left,-1,miss,decision,2,decision2,beaver
94,8,match,5.00033838445,right,-1,miss,arm2,1,arm21,beaver
95,8,baby,1.50024782661,left,-1,miss,arm2,2,arm22,beaver
96,8,arc,1.10025416566,left,-1,miss,arm2,3,arm23,beaver
97,9,beaver,1.33365129196,space,-1,miss,target,NaN,targetNaN,beaver
98,9,trophy,4.71685341705,right,-1,miss,path,1,path1,beaver
99,9,astronaut,0.850239374546,right,-1,miss,path,2,path2,beaver
100,9,robot,1.05025869355,left,-1,miss,path,3,path3,beaver
101,9,watch,1.75029340739,right,-1,miss,decision,1,decision1,beaver
102,9,clover,3.33374154793,left,-1,miss,arm1,1,arm11,beaver
103,9,radio,1.95002445062,left,-1,miss,arm1,2,arm12,beaver
104,9,wing,1.25002837479,left,-1,miss,arm1,3,arm13,beaver
105,9,holly,2.16700706351,left,-1,miss,decision,2,decision2,beaver
106,9,match,0.833577940111,right,-1,miss,arm2,1,arm21,beaver
107,9,baby,1.98355016904,left,-1,miss,arm2,2,arm22,beaver
108,9,arc,0.566927372616,left,-1,miss,arm2,3,arm23,beaver
109,10,arc,0.650337780729,space,-1,miss,target,NaN,targetNaN,arc
110,10,trophy,1.367033929,right,-1,miss,path,1,path1,arc
111,10,astronaut,0.233911494808,right,-1,miss,path,2,path2,arc
112,10,robot,0.267127807292,left,-1,miss,path,3,path3,arc
113,10,watch,1.21705053127,left,-1,miss,decision,1,decision1,arc
114,10,clover,2.65018866216,left,-1,miss,arm1,1,arm11,arc
115,10,radio,1.63358941077,left,-1,miss,arm1,2,arm12,arc
116,10,wing,0.483601787008,left,-1,miss,arm1,3,arm13,arc
117,10,stepladder,2.73397065926,left,-1,miss,decision,2,decision2,arc
118,10,calc,1.9335758271,right,-1,miss,arm2,1,arm21,arc
119,10,tongue,1.16691469452,left,-1,miss,arm2,2,arm22,arc
120,10,beaver,0.716926768897,left,-1,miss,arm2,3,arm23,arc
121,11,arc,1.25024541174,space,-1,miss,target,NaN,targetNaN,arc
122,11,trophy,1.88335818643,right,-1,miss,path,1,path1,arc
123,11,astronaut,0.167045399663,right,-1,miss,path,2,path2,arc
124,11,robot,0.316907449893,left,-1,miss,path,3,path3,arc
125,11,watch,1.20037551316,left,-1,miss,decision,1,decision1,arc
126,11,clover,2.36693673026,left,-1,miss,arm1,1,arm11,arc
127,11,radio,0.450257787974,left,-1,miss,arm1,2,arm12,arc
128,11,wing,0.466920429848,left,-1,miss,arm1,3,arm13,arc
129,11,stepladder,0.883600881429,right,-1,miss,decision,2,decision2,arc
130,11,calc,2.93357009177,right,-1,miss,arm2,1,arm21,arc
131,11,tongue,1.40025839169,left,-1,miss,arm2,2,arm22,arc
132,11,beaver,2.71689296064,left,-1,miss,arm2,3,arm23,arc
133,12,arc,0.217052644288,space,-1,miss,target,NaN,targetNaN,arc
134,12,trophy,0.700301557596,right,-1,miss,path,1,path1,arc
135,12,astronaut,0.0835725066408,right,-1,miss,path,2,path2,arc
136,12,robot,0.233598768413,left,-1,miss,path,3,path3,arc
137,12,pigeon,0.750373098284,right,-1,miss,decision,1,decision1,arc
138,12,bus,1.18384236899,right,-1,miss,arm1,1,arm11,arc
139,12,deer,0.466971444097,left,-1,miss,arm1,2,arm12,arc
140,12,fist,0.516923448442,left,-1,miss,arm1,3,arm13,arc
141,12,stepladder,1.3502553731,right,-1,miss,decision,2,decision2,arc
142,12,calc,1.90023786525,right,-1,miss,arm2,1,arm21,arc
143,12,tongue,1.15026835305,left,-1,miss,arm2,2,arm22,arc
144,12,beaver,0.200045278918,left,-1,miss,arm2,3,arm23,arc
145,13,beaver,0.967001328181,space,0,wrong,target,NaN,targetNaN,beaver
146,13,trophy,0.700279823714,right,0,wrong,path,1,path1,beaver
147,13,astronaut,0.466920429846,right,0,wrong,path,2,path2,beaver
148,13,robot,0.483643745472,left,0,wrong,path,3,path3,beaver
149,13,watch,0.983663366336,right,0,wrong,decision,1,decision1,beaver
150,13,clover,0.683686911374,left,0,wrong,arm1,1,arm11,beaver
151,13,radio,0.250286464623,left,0,wrong,arm1,2,arm12,beaver
152,13,wing,2.71704056991,left,0,wrong,arm1,3,arm13,beaver
153,13,stepladder,0.716932202367,right,0,wrong,decision,2,decision2,beaver
154,13,calc,1.70023484666,right,0,wrong,arm2,1,arm21,beaver
155,13,tongue,0.700255373098,left,0,wrong,arm2,2,arm22,beaver
156,13,beaver,0.317509659502,left,0,wrong,arm2,3,arm23,beaver
157,14,arc,1.18362382275,space,0,wrong,target,NaN,targetNaN,arc
158,14,trophy,2.96694065443,right,0,wrong,path,1,path1,arc
159,14,astronaut,0.100218546246,right,0,wrong,path,2,path2,arc
160,14,robot,0.266912279641,left,0,wrong,path,3,path3,arc
161,14,pigeon,1.4169379377,right,0,wrong,decision,1,decision1,arc
162,14,bus,4.50021401835,right,0,wrong,arm1,1,arm11,arc
163,14,deer,0.500049203092,left,0,wrong,arm1,2,arm12,arc
164,14,fist,0.416931900507,left,0,wrong,arm1,3,arm13,arc
165,14,holly,1.65024510988,left,0,wrong,decision,2,decision2,arc
166,14,match,0.450334762136,right,0,wrong,arm2,1,arm21,arc
167,14,baby,0.533596957257,left,0,wrong,arm2,2,arm22,arc
168,14,arc,1.30022820575,left,0,wrong,arm2,3,arm23,arc
169,15,arc,0.0837047210825,space,0,wrong,target,NaN,targetNaN,arc
170,15,trophy,0.516916807534,right,0,wrong,path,1,path1,arc
171,15,astronaut,0.450263221444,right,0,wrong,path,2,path2,arc
172,15,robot,0.100257787974,left,0,wrong,path,3,path3,arc
173,15,pigeon,1.91694729534,right,0,wrong,decision,1,decision1,arc
174,15,bus,0.650333554697,right,0,wrong,arm1,1,arm11,arc
175,15,deer,1.13358216614,left,0,wrong,arm1,2,arm12,arc
176,15,fist,0.0669104684857,left,0,wrong,arm1,3,arm13,arc
177,15,holly,0.683622917169,right,0,wrong,decision,2,decision2,arc
178,15,match,0.416855228206,right,0,wrong,arm2,1,arm21,arc
179,15,baby,1.81690322386,left,0,wrong,arm2,2,arm22,arc
180,15,arc,0.150304878049,left,0,wrong,arm2,3,arm23,arc
181,16,beaver,1.40028042743,space,-1,miss,target,NaN,targetNaN,beaver
182,16,trophy,2.25027680512,right,-1,miss,path,1,path1,beaver
183,16,astronaut,1.71689839411,right,-1,miss,path,2,path2,beaver
184,16,robot,0.80024873219,left,-1,miss,path,3,path3,beaver
185,16,watch,2.25034110118,right,-1,miss,decision,1,decision1,beaver
186,16,clover,1.26692707076,left,-1,miss,arm1,1,arm11,beaver
187,16,radio,0.233724341946,left,-1,miss,arm1,2,arm12,beaver
188,16,wing,0.53361144651,left,-1,miss,arm1,3,arm13,beaver
189,16,holly,1.55025476938,right,-1,miss,decision,2,decision2,beaver
190,16,match,1.1169334098,right,-1,miss,arm2,1,arm21,beaver
191,16,baby,1.43360450374,left,-1,miss,arm2,2,arm22,beaver
192,16,arc,0.150236054093,left,-1,miss,arm2,3,arm23,beaver
193,17,beaver,0.600348949529,space,-1,miss,target,NaN,targetNaN,beaver
194,17,trophy,1.81666384931,right,-1,miss,path,1,path1,beaver
195,17,astronaut,0.466707920792,right,-1,miss,path,2,path2,beaver
196,17,robot,0.766920429849,left,-1,miss,path,3,path3,beaver
197,17,pigeon,0.900374909443,right,-1,miss,decision,1,decision1,beaver
198,17,bus,0.633674535136,right,-1,miss,arm1,1,arm11,beaver
199,17,deer,0.40034864767,left,-1,miss,arm1,2,arm12,beaver
200,17,fist,0.450453996618,left,-1,miss,arm1,3,arm13,beaver
201,17,holly,1.26706381309,right,-1,miss,decision,2,decision2,beaver
202,17,match,0.867158596957,right,-1,miss,arm2,1,arm21,beaver
203,17,baby,0.866983518474,left,-1,miss,arm2,2,arm22,beaver
204,17,arc,0.333580053128,left,-1,miss,arm2,3,arm23,beaver
205,18,arc,0.683647669644,space,0,wrong,target,NaN,targetNaN,arc
206,18,trophy,0.483615370684,right,0,wrong,path,1,path1,arc
207,18,astronaut,0.100375211303,right,0,wrong,path,2,path2,arc
208,18,robot,0.20033687515,left,0,wrong,path,3,path3,arc
209,18,pigeon,0.666936730258,right,0,wrong,decision,1,decision1,arc
210,18,bus,0.533571902921,right,0,wrong,arm1,1,arm11,arc
211,18,deer,0.150244808017,left,0,wrong,arm1,2,arm12,arc
212,18,fist,0.350367966674,left,0,wrong,arm1,3,arm13,arc
213,18,holly,0.383623822749,right,0,wrong,decision,2,decision2,arc
214,18,match,1.11692948563,right,0,wrong,arm2,1,arm21,arc
215,18,baby,0.200251147066,left,0,wrong,arm2,2,arm22,arc
216,18,arc,0.250238167109,left,0,wrong,arm2,3,arm23,arc
217,19,beaver,0.333594844242,space,1,correct,target,NaN,targetNaN,beaver
218,19,trophy,0.316931296788,right,1,correct,path,1,path1,beaver
219,19,astronaut,0.200294614828,right,1,correct,path,2,path2,beaver
220,19,robot,0.416911977783,left,1,correct,path,3,path3,beaver
221,19,pigeon,0.367008270949,right,1,correct,decision,1,decision1,beaver
222,19,bus,2.51691590196,right,1,correct,arm1,1,arm11,beaver
223,19,deer,0.133616879981,left,1,correct,arm1,2,arm12,beaver
224,19,fist,0.116896281092,left,1,correct,arm1,3,arm13,beaver
225,19,stepladder,0.650426225549,left,1,correct,decision,2,decision2,beaver
226,19,calc,0.40030427433,right,1,correct,arm2,1,arm21,beaver
227,19,tongue,0.516971142235,left,1,correct,arm2,2,arm22,beaver
228,19,beaver,0.0502804274347,left,1,correct,arm2,3,arm23,beaver
229,20,arc,6.10019530307,space,0,wrong,target,NaN,targetNaN,arc
230,20,trophy,0.916923146582,right,0,wrong,path,1,path1,arc
231,20,astronaut,0.500274088385,right,0,wrong,path,2,path2,arc
232,20,robot,0.166910770346,left,0,wrong,path,3,path3,arc
233,20,pigeon,5.46686186911,right,0,wrong,decision,1,decision1,arc
234,20,bus,2.21690654431,right,0,wrong,arm1,1,arm11,arc
235,20,deer,0.750253260081,left,0,wrong,arm1,2,arm12,arc
236,20,fist,0.0335652620124,left,0,wrong,arm1,3,arm13,arc
237,20,holly,2.5669125815,right,0,wrong,decision,2,decision2,arc
238,20,match,0.38359574982,right,0,wrong,arm2,1,arm21,arc
239,20,baby,0.433595447959,left,0,wrong,arm2,2,arm22,arc
240,20,arc,0.0502203574015,left,0,wrong,arm2,3,arm23,arc
241,21,beaver,0.400277106979,space,-1,miss,target,NaN,targetNaN,beaver
242,21,trophy,1.66689145134,right,-1,miss,path,1,path1,beaver
243,21,astronaut,0.234504044916,right,-1,miss,path,2,path2,beaver
244,21,robot,0.350449770587,left,-1,miss,path,3,path3,beaver
245,21,pigeon,1.51721685583,left,-1,miss,decision,1,decision1,beaver
246,21,bus,0.55026593818,right,-1,miss,arm1,1,arm11,beaver
247,21,deer,0.800358910892,left,-1,miss,arm1,2,arm12,beaver
248,21,fist,0.0169297874909,left,-1,miss,arm1,3,arm13,beaver
249,21,holly,0.566997404008,left,-1,miss,decision,2,decision2,beaver
250,21,match,1.00025627868,right,-1,miss,arm2,1,arm21,beaver
251,21,baby,0.167306206229,left,-1,miss,arm2,2,arm22,beaver
252,21,arc,0.0336020888662,left,-1,miss,arm2,3,arm23,beaver
253,22,arc,0.283770526443,space,-1,miss,target,NaN,targetNaN,arc
254,22,trophy,1.916902922,right,-1,miss,path,1,path1,arc
255,22,astronaut,0.566915901956,right,-1,miss,path,2,path2,arc
256,22,robot,0.10027710698,left,-1,miss,path,3,path3,arc
257,22,watch,0.933695967158,right,-1,miss,decision,1,decision1,arc
258,22,clover,1.2002665419,left,-1,miss,arm1,1,arm11,arc
259,22,radio,0.234002354504,left,-1,miss,arm1,2,arm12,arc
260,22,wing,0.433593334943,left,-1,miss,arm1,3,arm13,arc
261,22,stepladder,6.48351756822,right,-1,miss,decision,2,decision2,arc
262,22,calc,1.76690382758,right,-1,miss,arm2,1,arm21,arc
263,22,tongue,0.366917109395,left,-1,miss,arm2,2,arm22,arc
264,22,beaver,0.167395556629,left,-1,miss,arm2,3,arm23,arc
265,23,beaver,0.68363891572,space,-1,miss,target,NaN,targetNaN,beaver
266,23,trophy,0.283576732672,right,-1,miss,path,1,path1,beaver
267,23,astronaut,0.466910770345,right,-1,miss,path,2,path2,beaver
268,23,robot,0.183562847138,left,-1,miss,path,3,path3,beaver
269,23,watch,0.783559224825,right,-1,miss,decision,1,decision1,beaver
270,23,clover,0.766956049263,left,-1,miss,arm1,1,arm11,beaver
271,23,radio,0.133701400628,left,-1,miss,arm1,2,arm12,beaver
272,23,wing,0.166994989133,left,-1,miss,arm1,3,arm13,beaver
273,23,holly,0.766986838928,right,-1,miss,decision,2,decision2,beaver
274,23,match,0.700569608791,right,-1,miss,arm2,1,arm21,beaver
275,23,baby,0.100238468969,left,-1,miss,arm2,2,arm22,beaver
276,23,arc,0.283601183288,left,-1,miss,arm2,3,arm23,beaver
277,24,beaver,0.233661555179,space,0,wrong,target,NaN,targetNaN,beaver
278,24,trophy,0.483555300652,right,0,wrong,path,1,path1,beaver
279,24,astronaut,0.217138372374,right,0,wrong,path,2,path2,beaver
280,24,robot,1.0335839773,left,0,wrong,path,3,path3,beaver
281,24,watch,3.65028978508,left,0,wrong,decision,1,decision1,beaver
282,24,clover,1.50025175079,left,0,wrong,arm1,1,arm11,beaver
283,24,radio,0.0502623158645,left,0,wrong,arm1,2,arm12,beaver
284,24,wing,0.0335758270958,left,0,wrong,arm1,3,arm13,beaver
285,24,stepladder,0.766931296788,right,0,wrong,decision,2,decision2,beaver
286,24,calc,0.51747826612,right,0,wrong,arm2,1,arm21,beaver
287,24,tongue,0.300355590436,left,0,wrong,arm2,2,arm22,beaver
288,24,beaver,0.0672826611935,left,0,wrong,arm2,3,arm23,beaver
289,25,arc,0.800279823714,space,-1,miss,target,NaN,targetNaN,arc
290,25,trophy,0.267450193191,right,-1,miss,path,1,path1,arc
291,25,astronaut,0.301221323352,right,-1,miss,path,2,path2,arc
292,25,robot,0.233405880223,left,-1,miss,path,3,path3,arc
293,25,watch,3.0502345448,left,-1,miss,decision,1,decision1,arc
294,25,clover,1.63357975127,left,-1,miss,arm1,1,arm11,arc
295,25,radio,0.366986537068,left,-1,miss,arm1,2,arm12,arc
296,25,wing,0.633584882878,left,-1,miss,arm1,3,arm13,arc
297,25,stepladder,0.483814296063,left,-1,miss,decision,2,decision2,arc
298,25,calc,0.433613559526,right,-1,miss,arm2,1,arm21,arc
299,25,tongue,0.167094602753,left,-1,miss,arm2,2,arm22,arc
300,25,beaver,0.0502807292924,left,-1,miss,arm2,3,arm23,arc
301,26,arc,1.1669557474,space,0,wrong,target,NaN,targetNaN,arc
302,26,trophy,1.80017205989,right,0,wrong,path,1,path1,arc
303,26,astronaut,0.116924052161,right,0,wrong,path,2,path2,arc
304,26,robot,0.167022760203,left,0,wrong,path,3,path3,arc
305,26,pigeon,3.46694940836,left,0,wrong,decision,1,decision1,arc
306,26,bus,0.883596051677,right,0,wrong,arm1,1,arm11,arc
307,26,deer,0.216934013524,left,0,wrong,arm1,2,arm12,arc
308,26,fist,0.050268353054,left,0,wrong,arm1,3,arm13,arc
309,26,holly,0.833600277711,right,0,wrong,decision,2,decision2,arc
310,26,match,0.583592429364,right,0,wrong,arm2,1,arm21,arc
311,26,baby,0.233395617002,left,0,wrong,arm2,2,arm22,arc
312,26,arc,0.250300350157,left,0,wrong,arm2,3,arm23,arc
313,27,arc,0.11691922241,space,-1,miss,target,NaN,targetNaN,arc
314,27,trophy,0.333603598165,right,-1,miss,path,1,path1,arc
315,27,astronaut,1.15003954359,right,-1,miss,path,2,path2,arc
316,27,robot,0.233583675441,left,-1,miss,path,3,path3,arc
317,27,watch,8.55059224825,right,-1,miss,decision,1,decision1,arc
318,27,clover,1.43410045883,left,-1,miss,arm1,1,arm11,arc
319,27,radio,0.0335643564358,left,-1,miss,arm1,2,arm12,arc
320,27,wing,0.450287068343,left,-1,miss,arm1,3,arm13,arc
321,27,stepladder,1.33399812847,right,-1,miss,decision,2,decision2,arc
322,27,calc,0.883606314899,right,-1,miss,arm2,1,arm21,arc
323,27,tongue,0.0335827698618,left,-1,miss,arm2,2,arm22,arc
324,27,beaver,0.0669294856307,left,-1,miss,arm2,3,arm23,arc
325,28,beaver,0.116892960637,space,1,correct,target,NaN,targetNaN,beaver
326,28,trophy,0.250249637769,right,1,correct,path,1,path1,beaver
327,28,astronaut,0.100233941077,right,1,correct,path,2,path2,beaver
328,28,robot,0.616910166627,left,1,correct,path,3,path3,beaver
329,28,pigeon,0.0170447959426,left,1,correct,decision,1,decision1,beaver
330,28,bus,0.616948502777,right,1,correct,arm1,1,arm11,beaver
331,28,deer,0.450237261532,left,1,correct,arm1,2,arm12,beaver
332,28,fist,0.0335667713116,left,1,correct,arm1,3,arm13,beaver
333,28,stepladder,1.26675712388,right,1,correct,decision,2,decision2,beaver
334,28,calc,0.56689748853,right,1,correct,arm2,1,arm21,beaver
335,28,tongue,0.0168980922481,left,1,correct,arm2,2,arm22,beaver
336,28,beaver,0.0502463173143,left,1,correct,arm2,3,arm23,beaver
337,29,arc,0.900283144168,space,0,wrong,target,NaN,targetNaN,arc
338,29,trophy,2.03365038638,right,0,wrong,path,1,path1,arc
339,29,astronaut,0.0835900144884,right,0,wrong,path,2,path2,arc
340,29,robot,0.233577940111,left,0,wrong,path,3,path3,arc
341,29,pigeon,2.80031453755,left,0,wrong,decision,1,decision1,arc
342,29,bus,0.566922844722,right,0,wrong,arm1,1,arm11,arc
343,29,deer,0.183549867181,left,0,wrong,arm1,2,arm12,arc
344,29,fist,0.0668848104324,left,0,wrong,arm1,3,arm13,arc
345,29,holly,1.46689809225,right,0,wrong,decision,2,decision2,arc
346,29,match,0.60030940594,right,0,wrong,arm2,1,arm21,arc
347,29,baby,0.0336099372144,left,0,wrong,arm2,2,arm22,arc
348,29,arc,0.200312122675,left,0,wrong,arm2,3,arm23,arc
349,30,arc,0.483765394833,space,1,correct,target,NaN,targetNaN,arc
350,30,trophy,0.283579449408,right,1,correct,path,1,path1,arc
351,30,astronaut,0.233526020284,right,1,correct,path,2,path2,arc
352,30,robot,0.183612050228,left,1,correct,path,3,path3,arc
353,30,watch,0.916921033568,right,1,correct,decision,1,decision1,arc
354,30,clover,1.43344904612,left,1,correct,arm1,1,arm11,arc
355,30,radio,0.000291294372801,left,1,correct,arm1,2,arm12,arc
356,30,wing,0.20028163487,left,1,correct,arm1,3,arm13,arc
357,30,holly,4.43360812606,left,1,correct,decision,2,decision2,arc
358,30,match,0.250267447476,right,1,correct,arm2,1,arm21,arc
359,30,baby,0.133588203333,left,1,correct,arm2,2,arm22,arc
360,30,arc,0.0502457135954,left,1,correct,arm2,3,arm23,arc
361,31,arc,0.433616276261,space,-1,miss,target,NaN,targetNaN,arc
362,31,trophy,0.316960577156,right,-1,miss,path,1,path1,arc
363,31,astronaut,0.850220961122,right,-1,miss,path,2,path2,arc
364,31,robot,0.133745472107,left,-1,miss,path,3,path3,arc
365,31,watch,1.51696751992,right,-1,miss,decision,1,decision1,arc
366,31,clover,0.950292803671,left,-1,miss,arm1,1,arm11,arc
367,31,radio,0.0503540811405,left,-1,miss,arm1,2,arm12,arc
368,31,wing,0.183597259116,left,-1,miss,arm1,3,arm13,arc
369,31,stepladder,0.900092368993,left,-1,miss,decision,2,decision2,arc
370,31,calc,0.23359484424,right,-1,miss,arm2,1,arm21,arc
371,31,tongue,0.266938541414,left,-1,miss,arm2,2,arm22,arc
372,31,beaver,0.0669907631,left,-1,miss,arm2,3,arm23,arc
373,32,arc,0.483650990098,space,-1,miss,target,NaN,targetNaN,arc
374,32,trophy,0.250276201401,right,-1,miss,path,1,path1,arc
375,32,astronaut,0.816901714561,right,-1,miss,path,2,path2,arc
376,32,robot,0.0169002052644,left,-1,miss,path,3,path3,arc
377,32,watch,1.51693220237,left,-1,miss,decision,1,decision1,arc
378,32,clover,1.08362382275,left,-1,miss,arm1,1,arm11,arc
379,32,radio,0.0337460758274,left,-1,miss,arm1,2,arm12,arc
380,32,wing,1.01699197054,left,-1,miss,arm1,3,arm13,arc
381,32,stepladder,0.867231043227,right,-1,miss,decision,2,decision2,arc
382,32,calc,0.383591825646,right,-1,miss,arm2,1,arm21,arc
383,32,tongue,0.0502620140069,left,-1,miss,arm2,2,arm22,arc
384,32,beaver,0.0835577155267,left,-1,miss,arm2,3,arm23,arc
385,33,beaver,0.416929485633,space,1,correct,target,NaN,targetNaN,beaver
386,33,trophy,0.233428217822,right,1,correct,path,1,path1,beaver
387,33,astronaut,0.3502538638,right,1,correct,path,2,path2,beaver
388,33,robot,0.583409804396,left,1,correct,path,3,path3,beaver
389,33,pigeon,1.85029461483,left,1,correct,decision,1,decision1,beaver
390,33,bus,0.366918618691,right,1,correct,arm1,1,arm11,beaver
391,33,deer,0.250329026805,left,1,correct,arm1,2,arm12,beaver
392,33,fist,0.0169005071239,left,1,correct,arm1,3,arm13,beaver
393,33,stepladder,0.700326611928,left,1,correct,decision,2,decision2,beaver
394,33,calc,0.23360601304,right,1,correct,arm2,1,arm21,beaver
395,33,tongue,0.183578845688,left,1,correct,arm2,2,arm22,beaver
396,33,beaver,0.0336099372125,left,1,correct,arm2,3,arm23,beaver
397,34,arc,0.683577034533,space,0,wrong,target,NaN,targetNaN,arc
398,34,trophy,0.383602390728,right,0,wrong,path,1,path1,arc
399,34,astronaut,1.30039302101,right,0,wrong,path,2,path2,arc
400,34,robot,0.0836618570393,left,0,wrong,path,3,path3,arc
401,34,pigeon,0.80022699831,right,0,wrong,decision,1,decision1,arc
402,34,bus,2.21695423811,right,0,wrong,arm1,1,arm11,arc
403,34,deer,0.0168971866697,left,0,wrong,arm1,2,arm12,arc
404,34,fist,0.066925863317,left,0,wrong,arm1,3,arm13,arc
405,34,holly,0.999996679546,left,0,wrong,decision,2,decision2,arc
406,34,match,0.383647367786,right,0,wrong,arm2,1,arm21,arc
407,34,baby,0.100343214199,left,0,wrong,arm2,2,arm22,arc
408,34,arc,0.0836829872005,left,0,wrong,arm2,3,arm23,arc
409,35,arc,0.266966614345,space,0,wrong,target,NaN,targetNaN,arc
410,35,trophy,0.816945786042,right,0,wrong,path,1,path1,arc
411,35,astronaut,0.767078906061,right,0,wrong,path,2,path2,arc
412,35,robot,0.850269258633,left,0,wrong,path,3,path3,arc
413,35,pigeon,2.41696087902,right,0,wrong,decision,1,decision1,arc
414,35,bus,0.500271975368,right,0,wrong,arm1,1,arm11,arc
415,35,deer,0.217062907512,left,0,wrong,arm1,2,arm12,arc
416,35,fist,0.0670949046125,left,0,wrong,arm1,3,arm13,arc
417,35,holly,1.13363318039,left,0,wrong,decision,2,decision2,arc
418,35,match,0.216929183771,right,0,wrong,arm2,1,arm21,arc
419,35,baby,0.16700706351,left,0,wrong,arm2,2,arm22,arc
420,35,arc,0.100361023908,left,0,wrong,arm2,3,arm23,arc
421,36,beaver,0.333679364889,space,0,wrong,target,NaN,targetNaN,beaver
422,36,trophy,0.51700736537,right,0,wrong,path,1,path1,beaver
423,36,astronaut,0.350213112775,right,0,wrong,path,2,path2,beaver
424,36,robot,0.0168999034049,left,0,wrong,path,3,path3,beaver
425,36,watch,1.81695695484,right,0,wrong,decision,1,decision1,beaver
426,36,clover,0.766946087901,left,0,wrong,arm1,1,arm11,beaver
427,36,radio,0.0502677493369,left,0,wrong,arm1,2,arm12,beaver
428,36,wing,0.183892175803,left,0,wrong,arm1,3,arm13,beaver
429,36,stepladder,1.23360963535,right,0,wrong,decision,2,decision2,beaver
430,36,calc,0.266995592852,right,0,wrong,arm2,1,arm21,beaver
431,36,tongue,0.150308802222,left,0,wrong,arm2,2,arm22,beaver
432,36,beaver,0.000342006762367,left,0,wrong,arm2,3,arm23,beaver
433,37,beaver,0.367051436851,space,0,wrong,target,NaN,targetNaN,beaver
434,37,trophy,0.467089773001,right,0,wrong,path,1,path1,beaver
435,37,astronaut,0.583670309103,right,0,wrong,path,2,path2,beaver
436,37,robot,0.600259297271,left,0,wrong,path,3,path3,beaver
437,37,watch,0.100426829267,left,0,wrong,decision,1,decision1,beaver
438,37,clover,1.38362382275,left,0,wrong,arm1,1,arm11,beaver
439,37,radio,0.0503021613131,left,0,wrong,arm1,2,arm12,beaver
440,37,wing,0.183431236417,left,0,wrong,arm1,3,arm13,beaver
441,37,stepladder,0.450384267086,right,0,wrong,decision,2,decision2,beaver
442,37,calc,0.366953030669,right,0,wrong,arm2,1,arm21,beaver
443,37,tongue,0.366888734605,left,0,wrong,arm2,2,arm22,beaver
444,37,beaver,0.0340615189562,left,0,wrong,arm2,3,arm23,beaver
445,38,arc,0.883652197537,space,1,correct,target,NaN,targetNaN,arc
446,38,trophy,0.283603598165,right,1,correct,path,1,path1,arc
447,38,astronaut,0.466954238107,right,1,correct,path,2,path2,arc
448,38,robot,0.100261410287,left,1,correct,path,3,path3,arc
449,38,watch,1.15028012557,left,1,correct,decision,1,decision1,arc
450,38,clover,1.2336479715,left,1,correct,arm1,1,arm11,arc
451,38,radio,0.0337116638493,left,1,correct,arm1,2,arm12,arc
452,38,wing,0.234085063994,left,1,correct,arm1,3,arm13,arc
453,38,holly,0.233737925622,left,1,correct,decision,2,decision2,arc
454,38,match,0.216927976335,right,1,correct,arm2,1,arm21,arc
455,38,baby,0.116774933591,left,1,correct,arm2,2,arm22,arc
456,38,arc,0.0502771069787,left,1,correct,arm2,3,arm23,arc
457,39,beaver,0.666937937696,space,0,wrong,target,NaN,targetNaN,beaver
458,39,trophy,0.333589410771,right,0,wrong,path,1,path1,beaver
459,39,astronaut,0.600254165662,right,0,wrong,path,2,path2,beaver
460,39,robot,0.0670019319004,left,0,wrong,path,3,path3,beaver
461,39,watch,2.86695363439,left,0,wrong,decision,1,decision1,beaver
462,39,clover,0.700256580536,left,0,wrong,arm1,1,arm11,beaver
463,39,radio,0.0335749215174,left,0,wrong,arm1,2,arm12,beaver
464,39,wing,0.0169201279878,left,0,wrong,arm1,3,arm13,beaver
465,39,stepladder,0.383631671095,left,0,wrong,decision,2,decision2,beaver
466,39,calc,0.266913788941,right,0,wrong,arm2,1,arm21,beaver
467,39,tongue,0.16705747404,left,0,wrong,arm2,2,arm22,beaver
468,39,beaver,0.0335658657314,left,0,wrong,arm2,3,arm23,beaver
469,40,beaver,0.483602088869,space,0,wrong,target,NaN,targetNaN,beaver
470,40,trophy,0.216907148033,right,0,wrong,path,1,path1,beaver
471,40,astronaut,0.666918316832,right,0,wrong,path,2,path2,beaver
472,40,robot,0.066918316832,left,0,wrong,path,3,path3,beaver
473,40,watch,4.63351968124,right,0,wrong,decision,1,decision1,beaver
474,40,clover,0.75023786525,left,0,wrong,arm1,1,arm11,beaver
475,40,radio,0.116895073654,left,0,wrong,arm1,2,arm12,beaver
476,40,wing,0.283682685342,left,0,wrong,arm1,3,arm13,beaver
477,40,stepladder,0.46705687032,left,0,wrong,decision,2,decision2,beaver
478,40,calc,0.216928278194,right,0,wrong,arm2,1,arm21,beaver
479,40,tongue,0.166739012315,left,0,wrong,arm2,2,arm22,beaver
480,40,beaver,0.0337167954604,left,0,wrong,arm2,3,arm23,beaver
481,41,beaver,0.550247222893,space,0,wrong,target,NaN,targetNaN,beaver
482,41,trophy,0.300253260082,right,0,wrong,path,1,path1,beaver
483,41,astronaut,0.500264730741,right,0,wrong,path,2,path2,beaver
484,41,robot,0.166911374063,left,0,wrong,path,3,path3,beaver
485,41,watch,3.60038155035,right,0,wrong,decision,1,decision1,beaver
486,41,clover,0.583565262014,left,0,wrong,arm1,1,arm11,beaver
487,41,radio,0.033575827094,left,0,wrong,arm1,2,arm12,beaver
488,41,wing,0.183719814055,left,0,wrong,arm1,3,arm13,beaver
489,41,stepladder,0.651038396523,right,0,wrong,decision,2,decision2,beaver
490,41,calc,0.816989555662,right,0,wrong,arm2,1,arm21,beaver
491,41,tongue,0.000252354504482,left,0,wrong,arm2,2,arm22,beaver
492,41,beaver,0.0669062424531,left,0,wrong,arm2,3,arm23,beaver
493,42,beaver,0.283630463657,space,0,wrong,target,NaN,targetNaN,beaver
494,42,trophy,0.233703513644,right,0,wrong,path,1,path1,beaver
495,42,astronaut,0.266929183772,right,0,wrong,path,2,path2,beaver
496,42,robot,0.233586694036,left,0,wrong,path,3,path3,beaver
497,42,watch,0.650302161313,right,0,wrong,decision,1,decision1,beaver
498,42,clover,0.967154370925,left,0,wrong,arm1,1,arm11,beaver
499,42,radio,0.0337545278926,left,0,wrong,arm1,2,arm12,beaver
500,42,wing,0.016934315383,left,0,wrong,arm1,3,arm13,beaver
501,42,stepladder,0.816993781695,left,0,wrong,decision,2,decision2,beaver
502,42,calc,0.166936126539,right,0,wrong,arm2,1,arm21,beaver
503,42,tongue,0.166964199469,left,0,wrong,arm2,2,arm22,beaver
504,42,beaver,0.0335537913561,left,0,wrong,arm2,3,arm23,beaver
505,43,beaver,0.216940050712,space,1,correct,target,NaN,targetNaN,beaver
506,43,trophy,0.317152861628,right,1,correct,path,1,path1,beaver
507,43,astronaut,0.666903525718,right,1,correct,path,2,path2,beaver
508,43,robot,0.200265334461,left,1,correct,path,3,path3,beaver
509,43,pigeon,0.366939748852,left,1,correct,decision,1,decision1,beaver
510,43,bus,0.650345327214,right,1,correct,arm1,1,arm11,beaver
511,43,deer,0.21692405216,left,1,correct,arm1,2,arm12,beaver
512,43,fist,0.0336150688236,left,1,correct,arm1,3,arm13,beaver
513,43,stepladder,0.751059224824,right,1,correct,decision,2,decision2,beaver
514,43,calc,0.383624426468,right,1,correct,arm2,1,arm21,beaver
515,43,tongue,0.116759236898,left,1,correct,arm2,2,arm22,beaver
516,43,beaver,0.0336678942294,left,1,correct,arm2,3,arm23,beaver
517,44,arc,0.333712569427,space,0,wrong,target,NaN,targetNaN,arc
518,44,trophy,0.500270164212,right,0,wrong,path,1,path1,arc
519,44,astronaut,1.23357250664,right,0,wrong,path,2,path2,arc
520,44,robot,0.250274692104,left,0,wrong,path,3,path3,arc
521,44,pigeon,1.16698231104,right,0,wrong,decision,1,decision1,arc
522,44,bus,1.36690382758,right,0,wrong,arm1,1,arm11,arc
523,44,deer,0.0835776382519,left,0,wrong,arm1,2,arm12,arc
524,44,fist,0.0168968848102,left,0,wrong,arm1,3,arm13,arc
525,44,holly,0.617037853175,right,0,wrong,decision,2,decision2,arc
526,44,match,0.38358971263,right,0,wrong,arm2,1,arm21,arc
527,44,baby,0.0835879014739,left,0,wrong,arm2,2,arm22,arc
528,44,arc,0.0502644288808,left,0,wrong,arm2,3,arm23,arc
529,45,arc,0.350418377204,space,1,correct,target,NaN,targetNaN,arc
530,45,trophy,0.3502538638,right,1,correct,path,1,path1,arc
531,45,astronaut,0.216922241005,right,1,correct,path,2,path2,arc
532,45,robot,0.166933711664,left,1,correct,path,3,path3,arc
533,45,watch,0.916972047815,right,1,correct,decision,1,decision1,arc
534,45,clover,0.766950917652,left,1,correct,arm1,1,arm11,arc
535,45,radio,0.000239978266109,left,1,correct,arm1,2,arm12,arc
536,45,wing,0.0169014127023,left,1,correct,arm1,3,arm13,arc
537,45,holly,0.816983820334,left,1,correct,decision,2,decision2,arc
538,45,match,0.400258089834,right,1,correct,arm2,1,arm21,arc
539,45,baby,0.0502469210332,left,1,correct,arm2,2,arm22,arc
540,45,arc,0.0502517507848,left,1,correct,arm2,3,arm23,arc
541,46,beaver,0.716933107944,space,0,wrong,target,NaN,targetNaN,beaver
542,46,trophy,1.73358518474,right,0,wrong,path,1,path1,beaver
543,46,astronaut,0.633581864284,right,0,wrong,path,2,path2,beaver
544,46,robot,0.100234846655,left,0,wrong,path,3,path3,beaver
545,46,watch,1.73341070997,left,0,wrong,decision,1,decision1,beaver
546,46,clover,1.08360148515,left,0,wrong,arm1,1,arm11,beaver
547,46,radio,0.0339428881907,left,0,wrong,arm1,2,arm12,beaver
548,46,wing,0.000241487563471,left,0,wrong,arm1,3,arm13,beaver
549,46,stepladder,1.30023424294,left,0,wrong,decision,2,decision2,beaver
550,46,calc,0.266935522821,right,0,wrong,arm2,1,arm21,beaver
551,46,tongue,0.350055843999,left,0,wrong,arm2,2,arm22,beaver
552,46,beaver,0.0336117483694,left,0,wrong,arm2,3,arm23,beaver
553,47,beaver,0.500393624729,space,-1,miss,target,NaN,targetNaN,beaver
554,47,trophy,0.183562243419,right,-1,miss,path,1,path1,beaver
555,47,astronaut,0.883558319247,right,-1,miss,path,2,path2,beaver
556,47,robot,0.133764187394,left,-1,miss,path,3,path3,beaver
557,47,pigeon,1.20025929727,left,-1,miss,decision,1,decision1,beaver
558,47,bus,0.366918014972,right,-1,miss,arm1,1,arm11,beaver
559,47,deer,0.133570393624,left,-1,miss,arm1,2,arm12,beaver
560,47,fist,0.0335891089107,left,-1,miss,arm1,3,arm13,beaver
561,47,holly,2.15103688723,right,-1,miss,decision,2,decision2,beaver
562,47,match,1.06693823956,right,-1,miss,arm2,1,arm21,beaver
563,47,baby,0.13359454238,left,-1,miss,arm2,2,arm22,beaver
564,47,arc,0.0502940111091,left,-1,miss,arm2,3,arm23,beaver
565,48,arc,0.416710939387,space,-1,miss,target,NaN,targetNaN,arc
566,48,trophy,0.350479352814,right,-1,miss,path,1,path1,arc
567,48,astronaut,0.650266843759,right,-1,miss,path,2,path2,arc
568,48,robot,0.116944276746,left,-1,miss,path,3,path3,arc
569,48,watch,2.70029672784,right,-1,miss,decision,1,decision1,arc
570,48,clover,0.900250241488,left,-1,miss,arm1,1,arm11,arc
571,48,radio,0.0335640545763,left,-1,miss,arm1,2,arm12,arc
572,48,wing,0.000295218545943,left,-1,miss,arm1,3,arm13,arc
573,48,stepladder,2.05034230862,left,-1,miss,decision,2,decision2,arc
574,48,calc,0.417032419706,right,-1,miss,arm2,1,arm21,arc
575,48,tongue,0.0836093334947,left,-1,miss,arm2,2,arm22,arc
576,48,beaver,0.0335888070513,left,-1,miss,arm2,3,arm23,arc
577,49,beaver,1.7839591886,space,-1,miss,target,NaN,targetNaN,beaver
578,49,trophy,0.36692495774,right,-1,miss,path,1,path1,beaver
579,49,astronaut,0.766900507124,right,-1,miss,path,2,path2,beaver
580,49,robot,0.416936730258,left,-1,miss,path,3,path3,beaver
581,49,pigeon,1.65096957257,right,-1,miss,decision,1,decision1,beaver
582,49,bus,0.517073170731,right,-1,miss,arm1,1,arm11,beaver
583,49,deer,0.183618389277,left,-1,miss,arm1,2,arm12,beaver
584,49,fist,0.0335912219271,left,-1,miss,arm1,3,arm13,beaver
585,49,holly,0.583697778315,left,-1,miss,decision,2,decision2,beaver
586,49,match,0.183671818402,right,-1,miss,arm2,1,arm21,beaver
587,49,baby,0.150401473074,left,-1,miss,arm2,2,arm22,beaver
588,49,arc,0.0169500120737,left,-1,miss,arm2,3,arm23,beaver
589,50,arc,0.516930994929,space,1,correct,target,NaN,targetNaN,arc
590,50,trophy,0.283568280609,right,1,correct,path,1,path1,arc
591,50,astronaut,0.266957558561,right,1,correct,path,2,path2,arc
592,50,robot,0.183676648152,left,1,correct,path,3,path3,arc
593,50,watch,0.250388191258,right,1,correct,decision,1,decision1,arc
594,50,clover,0.683631067375,left,1,correct,arm1,1,arm11,arc
595,50,radio,0.0336150688236,left,1,correct,arm1,2,arm12,arc
596,50,wing,0.150318763583,left,1,correct,arm1,3,arm13,arc
597,50,holly,0.283696269018,right,1,correct,decision,2,decision2,arc
598,50,match,0.650296727845,right,1,correct,arm2,1,arm21,arc
599,50,baby,0.0336253320456,left,1,correct,arm2,2,arm22,arc
600,50,arc,0.0336461603474,left,1,correct,arm2,3,arm23,arc
