pic_index,trial_num,pic_name,rt,resp,feedback_code,feedback,segment,segment_index,pic_type,trial_target
1,1,bolt,5.91689929969,space,0,wrong,target,NaN,targetNaN,bolt
2,1,coffeepot,2.28356646945,left,0,wrong,path,1,path1,bolt
3,1,mosquito,1.43361929486,right,0,wrong,path,2,path2,bolt
4,1,canoe,0.114130644772,left,0,wrong,path,3,path3,bolt
5,1,goose,5.1168724342,left,0,wrong,decision,1,decision1,bolt
6,1,sailor,4.38350760686,right,0,wrong,arm1,1,arm11,bolt
7,1,cooker,0.733574015938,right,0,wrong,arm1,2,arm12,bolt
8,1,tooth,0.600251750784,left,0,wrong,arm1,3,arm13,bolt
9,1,garlic,2.06726243661,left,0,wrong,decision,2,decision2,bolt
10,1,mug,2.15025476938,right,0,wrong,arm2,1,arm21,bolt
11,1,branch,0.55024329872,left,0,wrong,arm2,2,arm22,bolt
12,1,bolt,1.83357069548,right,0,wrong,arm2,3,arm23,bolt
13,2,lion,1.13368872253,space,1,correct,target,NaN,targetNaN,lion
14,2,coffeepot,1.65024812847,left,1,correct,path,1,path1,lion
15,2,mosquito,0.466944880463,right,1,correct,path,2,path2,lion
16,2,canoe,2.0002188481,left,1,correct,path,3,path3,lion
17,2,goose,3.71691529824,left,1,correct,decision,1,decision1,lion
18,2,sailor,1.45023575223,right,1,correct,arm1,1,arm11,lion
19,2,cooker,0.450446450133,right,1,correct,arm1,2,arm12,lion
20,2,tooth,1.50024631731,left,1,correct,arm1,3,arm13,lion
21,2,crutches,0.850317858007,right,1,correct,decision,2,decision2,lion
22,2,stapler,1.08416716977,right,1,correct,arm2,1,arm21,lion
23,2,rose,0.766900205264,left,1,correct,arm2,2,arm22,lion
24,2,lion,1.23363921758,left,1,correct,arm2,3,arm23,lion
25,3,bolt,1.38366789423,space,-1,miss,target,NaN,targetNaN,bolt
26,3,coffeepot,1.98422482492,left,-1,miss,path,1,path1,bolt
27,3,mosquito,0.266910770344,right,-1,miss,path,2,path2,bolt
28,3,canoe,0.0835740159382,left,-1,miss,path,3,path3,bolt
29,3,domino,2.06696812364,left,-1,miss,decision,1,decision1,bolt
30,3,ambulance,3.26691348708,right,-1,miss,arm1,1,arm11,bolt
31,3,trunk,0.566920731708,left,-1,miss,arm1,2,arm12,bolt
32,3,peach,0.300256278677,left,-1,miss,arm1,3,arm13,bolt
33,3,crutches,1.20027076793,right,-1,miss,decision,2,decision2,bolt
34,3,stapler,0.816947899059,right,-1,miss,arm2,1,arm21,bolt
35,3,rose,0.516969632938,left,-1,miss,arm2,2,arm22,bolt
36,3,lion,1.05025627868,left,-1,miss,arm2,3,arm23,bolt
37,4,bolt,0.450262014007,space,1,correct,target,NaN,targetNaN,bolt
38,4,coffeepot,1.28362080415,left,1,correct,path,1,path1,bolt
39,4,mosquito,0.11397065926,right,1,correct,path,2,path2,bolt
40,4,canoe,0.0169134870794,left,1,correct,path,3,path3,bolt
41,4,domino,0.850258995411,left,1,correct,decision,1,decision1,bolt
42,4,ambulance,0.583642538035,right,1,correct,arm1,1,arm11,bolt
43,4,trunk,0.416723919343,left,1,correct,arm1,2,arm12,bolt
44,4,peach,0.200701219512,left,1,correct,arm1,3,arm13,bolt
45,4,garlic,0.666933711664,left,1,correct,decision,2,decision2,bolt
46,4,mug,0.483609635354,right,1,correct,arm2,1,arm21,bolt
47,4,branch,1.3835743178,left,1,correct,arm2,2,arm22,bolt
48,4,bolt,0.800262315865,right,1,correct,arm2,3,arm23,bolt
49,5,lion,0.733561941561,space,0,wrong,target,NaN,targetNaN,lion
50,5,coffeepot,1.06691137406,left,0,wrong,path,1,path1,lion
51,5,mosquito,0.114102873702,right,0,wrong,path,2,path2,lion
52,5,canoe,0.350242393142,left,0,wrong,path,3,path3,lion
53,5,domino,1.05029401111,left,0,wrong,decision,1,decision1,lion
54,5,ambulance,0.36699619657,right,0,wrong,arm1,1,arm11,lion
55,5,trunk,0.567029099251,left,0,wrong,arm1,2,arm12,lion
56,5,peach,0.10009327457,left,0,wrong,arm1,3,arm13,lion
57,5,crutches,0.483865914031,right,0,wrong,decision,2,decision2,lion
58,5,stapler,0.417035136441,right,0,wrong,arm2,1,arm21,lion
59,5,rose,0.383614465105,left,0,wrong,arm2,2,arm22,lion
60,5,lion,0.316959369717,left,0,wrong,arm2,3,arm23,lion
61,6,lion,1.13360420188,space,1,correct,target,NaN,targetNaN,lion
62,6,coffeepot,0.866914090799,left,1,correct,path,1,path1,lion
63,6,mosquito,0.114013523304,right,1,correct,path,2,path2,lion
64,6,canoe,0.350270164212,left,1,correct,path,3,path3,lion
65,6,goose,1.91671486356,left,1,correct,decision,1,decision1,lion
66,6,sailor,0.466726937939,right,1,correct,arm1,1,arm11,lion
67,6,cooker,1.26695393625,right,1,correct,arm1,2,arm12,lion
68,6,tooth,0.0335673750305,left,1,correct,arm1,3,arm13,lion
69,6,crutches,1.88369928761,right,1,correct,decision,2,decision2,lion
70,6,stapler,0.36695242695,right,1,correct,arm2,1,arm21,lion
71,6,rose,0.183608126057,left,1,correct,arm2,2,arm22,lion
72,6,lion,0.116913185222,left,1,correct,arm2,3,arm23,lion
73,7,lion,0.533884327457,space,1,correct,target,NaN,targetNaN,lion
74,7,coffeepot,0.367040268053,left,1,correct,path,1,path1,lion
75,7,mosquito,0.400255071238,right,1,correct,path,2,path2,lion
76,7,canoe,0.366915901957,left,1,correct,path,3,path3,lion
77,7,goose,1.10025778797,right,1,correct,decision,1,decision1,lion
78,7,sailor,2.35024028012,right,1,correct,arm1,1,arm11,lion
79,7,cooker,1.01773273364,right,1,correct,arm1,2,arm12,lion
80,7,tooth,0.216724824921,left,1,correct,arm1,3,arm13,lion
81,7,crutches,0.983643141753,right,1,correct,decision,2,decision2,lion
82,7,stapler,0.383602390728,right,1,correct,arm2,1,arm21,lion
83,7,rose,0.233603598164,left,1,correct,arm2,2,arm22,lion
84,7,lion,0.200064597922,left,1,correct,arm2,3,arm23,lion
85,8,bolt,0.633601787007,space,0,wrong,target,NaN,targetNaN,bolt
86,8,coffeepot,0.216918618691,left,0,wrong,path,1,path1,bolt
87,8,mosquito,0.400270164211,right,0,wrong,path,2,path2,bolt
88,8,canoe,0.383593636803,left,0,wrong,path,3,path3,bolt
89,8,goose,0.733637104564,left,0,wrong,decision,1,decision1,bolt
90,8,sailor,0.366972651535,right,0,wrong,arm1,1,arm11,bolt
91,8,cooker,0.566921939146,right,0,wrong,arm1,2,arm12,bolt
92,8,tooth,0.233589410771,left,0,wrong,arm1,3,arm13,bolt
93,8,garlic,0.767139579812,right,0,wrong,decision,2,decision2,bolt
94,8,mug,0.233580656846,right,0,wrong,arm2,1,arm21,bolt
95,8,branch,0.250268051195,left,0,wrong,arm2,2,arm22,bolt
96,8,bolt,1.00025778797,right,0,wrong,arm2,3,arm23,bolt
97,9,bolt,0.466932806086,space,-1,miss,target,NaN,targetNaN,bolt
98,9,coffeepot,0.183586694036,left,-1,miss,path,1,path1,bolt
99,9,mosquito,0.350537309829,right,-1,miss,path,2,path2,bolt
100,9,canoe,0.183577336393,left,-1,miss,path,3,path3,bolt
101,9,goose,0.566963595749,left,-1,miss,decision,1,decision1,bolt
102,9,sailor,0.316913185219,right,-1,miss,arm1,1,arm11,bolt
103,9,cooker,0.616884508574,right,-1,miss,arm1,2,arm12,bolt
104,9,tooth,0.133565563872,left,-1,miss,arm1,3,arm13,bolt
105,9,crutches,1.00033627143,right,-1,miss,decision,2,decision2,bolt
106,9,stapler,0.283574317797,right,-1,miss,arm2,1,arm21,bolt
107,9,rose,0.183562847138,left,-1,miss,arm2,2,arm22,bolt
108,9,lion,0.0502541656606,left,-1,miss,arm2,3,arm23,bolt
109,10,bolt,0.166926165177,space,1,correct,target,NaN,targetNaN,bolt
110,10,coffeepot,0.883582166143,left,1,correct,path,1,path1,bolt
111,10,mosquito,0.114048840858,right,1,correct,path,2,path2,bolt
112,10,canoe,0.333599975851,left,1,correct,path,3,path3,bolt
113,10,domino,1.25031031152,right,1,correct,decision,1,decision1,bolt
114,10,ambulance,0.68359997585,right,1,correct,arm1,1,arm11,bolt
115,10,trunk,0.100047391934,left,1,correct,arm1,2,arm12,bolt
116,10,peach,0.217147730018,left,1,correct,arm1,3,arm13,bolt
117,10,garlic,0.883589108911,left,1,correct,decision,2,decision2,bolt
118,10,mug,0.201108126057,right,1,correct,arm2,1,arm21,bolt
119,10,branch,0.183651593818,left,1,correct,arm2,2,arm22,bolt
120,10,bolt,0.766951219512,right,1,correct,arm2,3,arm23,bolt
121,11,bolt,0.333757546487,space,1,correct,target,NaN,targetNaN,bolt
122,11,coffeepot,0.667246739918,left,1,correct,path,1,path1,bolt
123,11,mosquito,0.113668799806,right,1,correct,path,2,path2,bolt
124,11,canoe,0.367301678338,left,1,correct,path,3,path3,bolt
125,11,domino,1.00034261048,left,1,correct,decision,1,decision1,bolt
126,11,ambulance,0.383628954358,right,1,correct,arm1,1,arm11,bolt
127,11,trunk,0.100261712147,left,1,correct,arm1,2,arm12,bolt
128,11,peach,0.316931900506,left,1,correct,arm1,3,arm13,bolt
129,11,garlic,0.733625030187,left,1,correct,decision,2,decision2,bolt
130,11,mug,0.266958162279,right,1,correct,arm2,1,arm21,bolt
131,11,branch,0.116988650085,left,1,correct,arm2,2,arm22,bolt
132,11,bolt,1.13422995653,right,1,correct,arm2,3,arm23,bolt
133,12,bolt,0.31701913789,space,1,correct,target,NaN,targetNaN,bolt
134,12,coffeepot,0.583702306207,left,1,correct,path,1,path1,bolt
135,12,mosquito,0.113940171455,right,1,correct,path,2,path2,bolt
136,12,canoe,0.366866095146,left,1,correct,path,3,path3,bolt
137,12,domino,0.916977179426,left,1,correct,decision,1,decision1,bolt
138,12,ambulance,0.601174535137,right,1,correct,arm1,1,arm11,bolt
139,12,trunk,0.1504422241,left,1,correct,arm1,2,arm12,bolt
140,12,peach,0.0501762859203,left,1,correct,arm1,3,arm13,bolt
141,12,garlic,0.616950012074,left,1,correct,decision,2,decision2,bolt
142,12,mug,0.251204721082,right,1,correct,arm2,1,arm21,bolt
143,12,branch,0.716974764549,left,1,correct,arm2,2,arm22,bolt
144,12,bolt,0.683627746921,right,1,correct,arm2,3,arm23,bolt
145,13,bolt,0.500352873702,space,1,correct,target,NaN,targetNaN,bolt
146,13,coffeepot,0.700237865251,left,1,correct,path,1,path1,bolt
147,13,mosquito,0.114104382999,right,1,correct,path,2,path2,bolt
148,13,canoe,0.450316046848,left,1,correct,path,3,path3,bolt
149,13,domino,0.683611446511,right,1,correct,decision,1,decision1,bolt
150,13,ambulance,0.600266240039,right,1,correct,arm1,1,arm11,bolt
151,13,trunk,0.167765636321,left,1,correct,arm1,2,arm12,bolt
152,13,peach,0.100329932384,left,1,correct,arm1,3,arm13,bolt
153,13,garlic,0.916923750301,left,1,correct,decision,2,decision2,bolt
154,13,mug,0.116919826129,right,1,correct,arm2,1,arm21,bolt
155,13,branch,0.150281031152,left,1,correct,arm2,2,arm22,bolt
156,13,bolt,0.150232431781,right,1,correct,arm2,3,arm23,bolt
157,14,lion,0.366944880465,space,1,correct,target,NaN,targetNaN,lion
158,14,coffeepot,0.166922844723,left,1,correct,path,1,path1,lion
159,14,mosquito,0.183587901472,right,1,correct,path,2,path2,lion
160,14,canoe,0.31690201642,left,1,correct,path,3,path3,lion
161,14,goose,4.66691982613,left,1,correct,decision,1,decision1,lion
162,14,sailor,0.483586694036,right,1,correct,arm1,1,arm11,lion
163,14,cooker,0.600343516058,right,1,correct,arm1,2,arm12,lion
164,14,tooth,0.117001328183,left,1,correct,arm1,3,arm13,lion
165,14,crutches,1.10119445786,left,1,correct,decision,2,decision2,lion
166,14,stapler,0.216928278192,right,1,correct,arm2,1,arm21,lion
167,14,rose,0.517093093456,left,1,correct,arm2,2,arm22,lion
168,14,lion,0.350247826613,left,1,correct,arm2,3,arm23,lion
169,15,bolt,0.31692495774,space,1,correct,target,NaN,targetNaN,bolt
170,15,coffeepot,0.15025929727,left,1,correct,path,1,path1,bolt
171,15,mosquito,0.183616578121,right,1,correct,path,2,path2,bolt
172,15,canoe,0.150421093938,left,1,correct,path,3,path3,bolt
173,15,domino,0.917159804396,left,1,correct,decision,1,decision1,bolt
174,15,ambulance,0.150289181356,right,1,correct,arm1,1,arm11,bolt
175,15,trunk,0.116860963535,left,1,correct,arm1,2,arm12,bolt
176,15,peach,0.150239978266,left,1,correct,arm1,3,arm13,bolt
177,15,garlic,0.533652801256,left,1,correct,decision,2,decision2,bolt
178,15,mug,0.116924354021,right,1,correct,arm2,1,arm21,bolt
179,15,branch,0.150257184256,left,1,correct,arm2,2,arm22,bolt
180,15,bolt,0.550229111326,right,1,correct,arm2,3,arm23,bolt
181,16,lion,0.266940654432,space,1,correct,target,NaN,targetNaN,lion
182,16,coffeepot,0.233576128954,left,1,correct,path,1,path1,lion
183,16,mosquito,0.466911675923,right,1,correct,path,2,path2,lion
184,16,canoe,0.113906061339,left,1,correct,path,3,path3,lion
185,16,goose,2.26708373581,left,1,correct,decision,1,decision1,lion
186,16,sailor,0.433839652258,right,1,correct,arm1,1,arm11,lion
187,16,cooker,0.550256278677,right,1,correct,arm1,2,arm12,lion
188,16,tooth,0.116915901957,left,1,correct,arm1,3,arm13,lion
189,16,crutches,1.18365219754,left,1,correct,decision,2,decision2,lion
190,16,stapler,0.117186368027,right,1,correct,arm2,1,arm21,lion
191,16,rose,0.500217640665,left,1,correct,arm2,2,arm22,lion
192,16,lion,0.23383240763,left,1,correct,arm2,3,arm23,lion
193,17,lion,0.366934919102,space,-1,miss,target,NaN,targetNaN,lion
194,17,coffeepot,0.167287792805,left,-1,miss,path,1,path1,lion
195,17,mosquito,0.150257184256,right,-1,miss,path,2,path2,lion
196,17,canoe,0.166903827578,left,-1,miss,path,3,path3,lion
197,17,goose,1.01694699348,left,-1,miss,decision,1,decision1,lion
198,17,sailor,0.216971142236,right,-1,miss,arm1,1,arm11,lion
199,17,cooker,0.733623822749,right,-1,miss,arm1,2,arm12,lion
200,17,tooth,0.0502339410759,left,-1,miss,arm1,3,arm13,lion
201,17,garlic,1.16695695484,left,-1,miss,decision,2,decision2,lion
202,17,mug,0.200082407631,right,-1,miss,arm2,1,arm21,lion
203,17,branch,0.533648575223,left,-1,miss,arm2,2,arm22,lion
204,17,bolt,0.167025476938,right,-1,miss,arm2,3,arm23,lion
205,18,lion,0.183868932625,space,1,correct,target,NaN,targetNaN,lion
206,18,coffeepot,0.183626237624,left,1,correct,path,1,path1,lion
207,18,mosquito,0.183670610963,right,1,correct,path,2,path2,lion
208,18,canoe,0.183587599613,left,1,correct,path,3,path3,lion
209,18,goose,0.800327517509,right,1,correct,decision,1,decision1,lion
210,18,sailor,0.500300350157,right,1,correct,arm1,1,arm11,lion
211,18,cooker,0.65027680512,right,1,correct,arm1,2,arm12,lion
212,18,tooth,0.0336223134509,left,1,correct,arm1,3,arm13,lion
213,18,crutches,2.28370351364,left,1,correct,decision,2,decision2,lion
214,18,stapler,0.316981707318,right,1,correct,arm2,1,arm21,lion
215,18,rose,0.200306387345,left,1,correct,arm2,2,arm22,lion
216,18,lion,0.0835851847387,left,1,correct,arm2,3,arm23,lion
217,19,lion,0.316979594301,space,-1,miss,target,NaN,targetNaN,lion
218,19,coffeepot,0.184101968123,left,-1,miss,path,1,path1,lion
219,19,mosquito,0.166915600097,right,-1,miss,path,2,path2,lion
220,19,canoe,0.200249939628,left,-1,miss,path,3,path3,lion
221,19,goose,0.46694789906,right,-1,miss,decision,1,decision1,lion
222,19,sailor,0.4669364284,right,-1,miss,arm1,1,arm11,lion
223,19,cooker,0.233652801257,right,-1,miss,arm1,2,arm12,lion
224,19,tooth,0.066889036465,left,-1,miss,arm1,3,arm13,lion
225,19,garlic,0.617142296547,right,-1,miss,decision,2,decision2,lion
226,19,mug,0.717122373822,right,-1,miss,arm2,1,arm21,lion
227,19,branch,0.0836111446515,left,-1,miss,arm2,2,arm22,lion
228,19,bolt,0.133596655396,right,-1,miss,arm2,3,arm23,lion
229,20,bolt,0.267121468245,space,0,wrong,target,NaN,targetNaN,bolt
230,20,coffeepot,0.916900507125,left,0,wrong,path,1,path1,bolt
231,20,mosquito,0.113222953392,right,0,wrong,path,2,path2,bolt
232,20,canoe,0.416907148032,left,0,wrong,path,3,path3,bolt
233,20,goose,1.60032963052,left,0,wrong,decision,1,decision1,bolt
234,20,sailor,0.517058983338,right,0,wrong,arm1,1,arm11,bolt
235,20,cooker,0.816886923449,right,0,wrong,arm1,2,arm12,bolt
236,20,tooth,0.366961482732,left,0,wrong,arm1,3,arm13,bolt
237,20,garlic,1.41700917653,left,0,wrong,decision,2,decision2,bolt
238,20,mug,0.216912581502,right,0,wrong,arm2,1,arm21,bolt
239,20,branch,0.750252656364,left,0,wrong,arm2,2,arm22,bolt
240,20,bolt,0.0502771069787,right,0,wrong,arm2,3,arm23,bolt
241,21,bolt,0.433599372132,space,1,correct,target,NaN,targetNaN,bolt
242,21,coffeepot,0.650340799322,left,1,correct,path,1,path1,bolt
243,21,mosquito,0.113195484184,right,1,correct,path,2,path2,bolt
244,21,canoe,0.0837696208655,left,1,correct,path,3,path3,bolt
245,21,domino,2.16688782903,right,1,correct,decision,1,decision1,bolt
246,21,ambulance,0.300345327216,right,1,correct,arm1,1,arm11,bolt
247,21,trunk,0.566914996378,left,1,correct,arm1,2,arm12,bolt
248,21,peach,0.033562545279,left,1,correct,arm1,3,arm13,bolt
249,21,garlic,1.26697868872,right,1,correct,decision,2,decision2,bolt
250,21,mug,0.533587901473,right,1,correct,arm2,1,arm21,bolt
251,21,branch,0.0337264549617,left,1,correct,arm2,2,arm22,bolt
252,21,bolt,0.400257787973,right,1,correct,arm2,3,arm23,bolt
253,22,bolt,0.500256580537,space,1,correct,target,NaN,targetNaN,bolt
254,22,coffeepot,0.583599975853,left,1,correct,path,1,path1,bolt
255,22,mosquito,0.11396039604,right,1,correct,path,2,path2,bolt
256,22,canoe,0.416885112292,left,1,correct,path,3,path3,bolt
257,22,domino,0.733789241729,right,1,correct,decision,1,decision1,bolt
258,22,ambulance,1.43358518474,right,1,correct,arm1,1,arm11,bolt
259,22,trunk,0.000238468968746,left,1,correct,arm1,2,arm12,bolt
260,22,peach,0.0502487321901,left,1,correct,arm1,3,arm13,bolt
261,22,garlic,0.83364404733,right,1,correct,decision,2,decision2,bolt
262,22,mug,1.81690322386,right,1,correct,arm2,1,arm21,bolt
263,22,branch,0.533591523787,left,1,correct,arm2,2,arm22,bolt
264,22,bolt,0.150289483217,right,1,correct,arm2,3,arm23,bolt
265,23,lion,0.383705022941,space,1,correct,target,NaN,targetNaN,lion
266,23,coffeepot,0.116921033567,left,1,correct,path,1,path1,lion
267,23,mosquito,0.167093395316,right,1,correct,path,2,path2,lion
268,23,canoe,0.350260202849,left,1,correct,path,3,path3,lion
269,23,goose,1.08362020044,right,1,correct,decision,1,decision1,lion
270,23,sailor,0.300254165661,right,1,correct,arm1,1,arm11,lion
271,23,cooker,0.56691922241,right,1,correct,arm1,2,arm12,lion
272,23,tooth,0.066905035017,left,1,correct,arm1,3,arm13,lion
273,23,crutches,1.2669557474,right,1,correct,decision,2,decision2,lion
274,23,stapler,0.283606013039,right,1,correct,arm2,1,arm21,lion
275,23,rose,0.233764489254,left,1,correct,arm2,2,arm22,lion
276,23,lion,0.266933107945,left,1,correct,arm2,3,arm23,lion
277,24,lion,0.333607824197,space,-1,miss,target,NaN,targetNaN,lion
278,24,coffeepot,0.733620200434,left,-1,miss,path,1,path1,lion
279,24,mosquito,0.113991185703,right,-1,miss,path,2,path2,lion
280,24,canoe,0.466932202366,left,-1,miss,path,3,path3,lion
281,24,goose,0.367435402077,right,-1,miss,decision,1,decision1,lion
282,24,sailor,0.45030367061,right,-1,miss,arm1,1,arm11,lion
283,24,cooker,0.166908959189,right,-1,miss,arm1,2,arm12,lion
284,24,tooth,0.0503024631726,left,-1,miss,arm1,3,arm13,lion
285,24,garlic,1.15028284231,left,-1,miss,decision,2,decision2,lion
286,24,mug,0.2003528737,right,-1,miss,arm2,1,arm21,lion
287,24,branch,0.466913185221,left,-1,miss,arm2,2,arm22,lion
288,24,bolt,0.100250845207,right,-1,miss,arm2,3,arm23,lion
289,25,bolt,0.350291596233,space,1,correct,target,NaN,targetNaN,bolt
290,25,coffeepot,0.150297633421,left,1,correct,path,1,path1,bolt
291,25,mosquito,0.10058107945,right,1,correct,path,2,path2,bolt
292,25,canoe,0.217304395075,left,1,correct,path,3,path3,bolt
293,25,domino,2.41769258633,right,1,correct,decision,1,decision1,bolt
294,25,ambulance,0.266939748853,right,1,correct,arm1,1,arm11,bolt
295,25,trunk,1.03357099734,left,1,correct,arm1,2,arm12,bolt
296,25,peach,0.0836618570393,left,1,correct,arm1,3,arm13,bolt
297,25,garlic,2.15035679787,right,1,correct,decision,2,decision2,bolt
298,25,mug,0.150323593336,right,1,correct,arm2,1,arm21,bolt
299,25,branch,0.283596051679,left,1,correct,arm2,2,arm22,bolt
300,25,bolt,0.816738106738,right,1,correct,arm2,3,arm23,bolt
301,26,bolt,0.366899903405,space,1,correct,target,NaN,targetNaN,bolt
302,26,coffeepot,0.633590316349,left,1,correct,path,1,path1,bolt
303,26,mosquito,0.113996921034,right,1,correct,path,2,path2,bolt
304,26,canoe,0.266768594543,left,1,correct,path,3,path3,bolt
305,26,domino,2.18359333494,left,1,correct,decision,1,decision1,bolt
306,26,ambulance,1.13357975127,right,1,correct,arm1,1,arm11,bolt
307,26,trunk,0.566917713113,left,1,correct,arm1,2,arm12,bolt
308,26,peach,0.0500573532954,left,1,correct,arm1,3,arm13,bolt
309,26,garlic,0.850262919585,left,1,correct,decision,2,decision2,bolt
310,26,mug,0.284367604443,right,1,correct,arm2,1,arm21,bolt
311,26,branch,0.233797090075,left,1,correct,arm2,2,arm22,bolt
312,26,bolt,0.0671631248497,right,1,correct,arm2,3,arm23,bolt
313,27,lion,0.200313933832,space,0,wrong,target,NaN,targetNaN,lion
314,27,coffeepot,0.717083735812,left,0,wrong,path,1,path1,lion
315,27,mosquito,0.112856194155,right,0,wrong,path,2,path2,lion
316,27,canoe,0.366916505674,left,0,wrong,path,3,path3,lion
317,27,domino,2.10025054335,right,0,wrong,decision,1,decision1,lion
318,27,ambulance,0.750705143684,right,0,wrong,arm1,1,arm11,lion
319,27,trunk,0.13357824197,left,0,wrong,arm1,2,arm12,lion
320,27,peach,0.0500763704422,left,0,wrong,arm1,3,arm13,lion
321,27,crutches,1.11696389761,left,0,wrong,decision,2,decision2,lion
322,27,stapler,0.233584882879,right,0,wrong,arm2,1,arm21,lion
323,27,rose,0.133822446269,left,0,wrong,arm2,2,arm22,lion
324,27,lion,0.0834671576922,left,0,wrong,arm2,3,arm23,lion
325,28,lion,0.266960577155,space,1,correct,target,NaN,targetNaN,lion
326,28,coffeepot,0.216912883361,left,1,correct,path,1,path1,lion
327,28,mosquito,0.183872253079,right,1,correct,path,2,path2,lion
328,28,canoe,0.100274390243,left,1,correct,path,3,path3,lion
329,28,goose,0.366968123642,left,1,correct,decision,1,decision1,lion
330,28,sailor,0.533583071723,right,1,correct,arm1,1,arm11,lion
331,28,cooker,0.0670574740398,right,1,correct,arm1,2,arm12,lion
332,28,tooth,0.100249939627,left,1,correct,arm1,3,arm13,lion
333,28,crutches,1.2002680512,left,1,correct,decision,2,decision2,lion
334,28,stapler,0.233592429366,right,1,correct,arm2,1,arm21,lion
335,28,rose,0.200272579088,left,1,correct,arm2,2,arm22,lion
336,28,lion,0.0668962810923,left,1,correct,arm2,3,arm23,lion
337,29,lion,0.450483276987,space,1,correct,target,NaN,targetNaN,lion
338,29,coffeepot,0.16689205506,left,1,correct,path,1,path1,lion
339,29,mosquito,0.20024299686,right,1,correct,path,2,path2,lion
340,29,canoe,0.100287672059,left,1,correct,path,3,path3,lion
341,29,goose,0.716958765999,right,1,correct,decision,1,decision1,lion
342,29,sailor,0.250250543348,right,1,correct,arm1,1,arm11,lion
343,29,cooker,0.133715286163,right,1,correct,arm1,2,arm12,lion
344,29,tooth,0.10023212992,left,1,correct,arm1,3,arm13,lion
345,29,crutches,0.966972953393,right,1,correct,decision,2,decision2,lion
346,29,stapler,0.316938541415,right,1,correct,arm2,1,arm21,lion
347,29,rose,0.116920429848,left,1,correct,arm2,2,arm22,lion
348,29,lion,1.70023846897,left,1,correct,arm2,3,arm23,lion
349,30,lion,0.366934013524,space,1,correct,target,NaN,targetNaN,lion
350,30,coffeepot,0.166917109394,left,1,correct,path,1,path1,lion
351,30,mosquito,0.117205385171,right,1,correct,path,2,path2,lion
352,30,canoe,0.316933409806,left,1,correct,path,3,path3,lion
353,30,goose,0.767507244625,left,1,correct,decision,1,decision1,lion
354,30,sailor,0.150293407389,right,1,correct,arm1,1,arm11,lion
355,30,cooker,0.183381127747,right,1,correct,arm1,2,arm12,lion
356,30,tooth,0.0667628592128,left,1,correct,arm1,3,arm13,lion
357,30,crutches,1.03377867665,left,1,correct,decision,2,decision2,lion
358,30,stapler,0.150008753924,right,1,correct,arm2,1,arm21,lion
359,30,rose,1.23362170973,left,1,correct,arm2,2,arm22,lion
360,30,lion,0.600305179907,left,1,correct,arm2,3,arm23,lion
361,31,bolt,0.350444337117,space,1,correct,target,NaN,targetNaN,bolt
362,31,coffeepot,0.16695272881,left,1,correct,path,1,path1,bolt
363,31,mosquito,0.300251147066,right,1,correct,path,2,path2,bolt
364,31,canoe,0.333881007004,left,1,correct,path,3,path3,bolt
365,31,domino,0.500250241488,right,1,correct,decision,1,decision1,bolt
366,31,ambulance,0.600576551558,right,1,correct,arm1,1,arm11,bolt
367,31,trunk,0.100346836512,left,1,correct,arm1,2,arm12,bolt
368,31,peach,0.0506333011344,left,1,correct,arm1,3,arm13,bolt
369,31,garlic,0.7170019319,left,1,correct,decision,2,decision2,bolt
370,31,mug,0.183625633905,right,1,correct,arm2,1,arm21,bolt
371,31,branch,0.733819729534,left,1,correct,arm2,2,arm22,bolt
372,31,bolt,0.800418980922,right,1,correct,arm2,3,arm23,bolt
373,32,bolt,0.283614163245,space,1,correct,target,NaN,targetNaN,bolt
374,32,coffeepot,0.116922844723,left,1,correct,path,1,path1,bolt
375,32,mosquito,0.13415358609,right,1,correct,path,2,path2,bolt
376,32,canoe,0.200545761892,left,1,correct,path,3,path3,bolt
377,32,domino,0.683653103115,right,1,correct,decision,1,decision1,bolt
378,32,ambulance,0.467008270949,right,1,correct,arm1,1,arm11,bolt
379,32,trunk,0.0836045037431,left,1,correct,arm1,2,arm12,bolt
380,32,peach,0.0503235933356,left,1,correct,arm1,3,arm13,bolt
381,32,garlic,1.10081019078,right,1,correct,decision,2,decision2,bolt
382,32,mug,1.93371045641,right,1,correct,arm2,1,arm21,bolt
383,32,branch,0.233615672541,left,1,correct,arm2,2,arm22,bolt
384,32,bolt,0.133571601064,right,1,correct,arm2,3,arm23,bolt
385,33,bolt,0.266968425502,space,1,correct,target,NaN,targetNaN,bolt
386,33,coffeepot,0.100282842308,left,1,correct,path,1,path1,bolt
387,33,mosquito,0.0835679787488,right,1,correct,path,2,path2,bolt
388,33,canoe,0.150252052645,left,1,correct,path,3,path3,bolt
389,33,domino,0.466764670369,left,1,correct,decision,1,decision1,bolt
390,33,ambulance,0.11789785076,right,1,correct,arm1,1,arm11,bolt
391,33,trunk,0.317196631247,left,1,correct,arm1,2,arm12,bolt
392,33,peach,0.033626237624,left,1,correct,arm1,3,arm13,bolt
393,33,garlic,1.3343165902,right,1,correct,decision,2,decision2,bolt
394,33,mug,1.48382848346,right,1,correct,arm2,1,arm21,bolt
395,33,branch,0.550272880946,left,1,correct,arm2,2,arm22,bolt
396,33,bolt,0.86672603236,right,1,correct,arm2,3,arm23,bolt
397,34,bolt,0.583622917171,space,1,correct,target,NaN,targetNaN,bolt
398,34,coffeepot,0.216911374064,left,1,correct,path,1,path1,bolt
399,34,mosquito,0.350242996861,right,1,correct,path,2,path2,bolt
400,34,canoe,0.166912883362,left,1,correct,path,3,path3,bolt
401,34,domino,0.550307896643,right,1,correct,decision,1,decision1,bolt
402,34,ambulance,0.516961482734,right,1,correct,arm1,1,arm11,bolt
403,34,trunk,0.116932202365,left,1,correct,arm1,2,arm12,bolt
404,34,peach,0.0337370200432,left,1,correct,arm1,3,arm13,bolt
405,34,garlic,0.483651291959,left,1,correct,decision,2,decision2,bolt
406,34,mug,0.416929183772,right,1,correct,arm2,1,arm21,bolt
407,34,branch,0.116938239556,left,1,correct,arm2,2,arm22,bolt
408,34,bolt,0.100339290026,right,1,correct,arm2,3,arm23,bolt
409,35,bolt,0.483603598164,space,1,correct,target,NaN,targetNaN,bolt
410,35,coffeepot,0.116916505674,left,1,correct,path,1,path1,bolt
411,35,mosquito,0.150248430331,right,1,correct,path,2,path2,bolt
412,35,canoe,0.166943673026,left,1,correct,path,3,path3,bolt
413,35,domino,0.80040388795,right,1,correct,decision,1,decision1,bolt
414,35,ambulance,0.466921335426,right,1,correct,arm1,1,arm11,bolt
415,35,trunk,0.100236959672,left,1,correct,arm1,2,arm12,bolt
416,35,peach,0.0502445061575,left,1,correct,arm1,3,arm13,bolt
417,35,garlic,0.783730680994,left,1,correct,decision,2,decision2,bolt
418,35,mug,0.150247524753,right,1,correct,arm2,1,arm21,bolt
419,35,branch,0.250242091282,left,1,correct,arm2,2,arm22,bolt
420,35,bolt,0.350260202851,right,1,correct,arm2,3,arm23,bolt
421,36,bolt,0.416928881912,space,1,correct,target,NaN,targetNaN,bolt
422,36,coffeepot,0.133575827094,left,1,correct,path,1,path1,bolt
423,36,mosquito,0.166910166627,right,1,correct,path,2,path2,bolt
424,36,canoe,0.166911072205,left,1,correct,path,3,path3,bolt
425,36,domino,0.550346232794,right,1,correct,decision,1,decision1,bolt
426,36,ambulance,0.466927372616,right,1,correct,arm1,1,arm11,bolt
427,36,trunk,0.133409804395,left,1,correct,arm1,2,arm12,bolt
428,36,peach,0.117072868872,left,1,correct,arm1,3,arm13,bolt
429,36,garlic,0.583718002898,left,1,correct,decision,2,decision2,bolt
430,36,mug,0.15003893987,right,1,correct,arm2,1,arm21,bolt
431,36,branch,0.283736718184,left,1,correct,arm2,2,arm22,bolt
432,36,bolt,0.150294312969,right,1,correct,arm2,3,arm23,bolt
433,37,bolt,0.433589712631,space,1,correct,target,NaN,targetNaN,bolt
434,37,coffeepot,0.11691922241,left,1,correct,path,1,path1,bolt
435,37,mosquito,0.13337961845,right,1,correct,path,2,path2,bolt
436,37,canoe,0.133579147549,left,1,correct,path,3,path3,bolt
437,37,domino,0.383641028737,right,1,correct,decision,1,decision1,bolt
438,37,ambulance,0.450264127021,right,1,correct,arm1,1,arm11,bolt
439,37,trunk,0.266924052161,left,1,correct,arm1,2,arm12,bolt
440,37,peach,0.300365249939,left,1,correct,arm1,3,arm13,bolt
441,37,garlic,0.333608729776,right,1,correct,decision,2,decision2,bolt
442,37,mug,0.800268353054,right,1,correct,arm2,1,arm21,bolt
443,37,branch,0.0835673750298,left,1,correct,arm2,2,arm22,bolt
444,37,bolt,0.0836093334947,right,1,correct,arm2,3,arm23,bolt
445,38,lion,0.500625452789,space,-1,miss,target,NaN,targetNaN,lion
446,38,coffeepot,0.166943371167,left,-1,miss,path,1,path1,lion
447,38,mosquito,0.183614163247,right,-1,miss,path,2,path2,lion
448,38,canoe,0.216907148031,left,-1,miss,path,3,path3,lion
449,38,goose,0.317007969088,left,-1,miss,decision,1,decision1,lion
450,38,sailor,0.416903525718,right,-1,miss,arm1,1,arm11,lion
451,38,cooker,0.0502810311518,right,-1,miss,arm1,2,arm12,lion
452,38,tooth,0.133577638251,left,-1,miss,arm1,3,arm13,lion
453,38,garlic,0.466988951943,left,-1,miss,decision,2,decision2,lion
454,38,mug,0.166982612896,right,-1,miss,arm2,1,arm21,lion
455,38,branch,0.450610057957,left,-1,miss,arm2,2,arm22,lion
456,38,bolt,0.116961784594,right,-1,miss,arm2,3,arm23,lion
457,39,lion,0.216945182323,space,1,correct,target,NaN,targetNaN,lion
458,39,coffeepot,0.100469391451,left,1,correct,path,1,path1,lion
459,39,mosquito,0.116996196572,right,1,correct,path,2,path2,lion
460,39,canoe,0.250367362956,left,1,correct,path,3,path3,lion
461,39,goose,0.75041445303,right,1,correct,decision,1,decision1,lion
462,39,sailor,0.267062605652,right,1,correct,arm1,1,arm11,lion
463,39,cooker,0.250411132576,right,1,correct,arm1,2,arm12,lion
464,39,tooth,0.133706230379,left,1,correct,arm1,3,arm13,lion
465,39,crutches,0.750236657814,left,1,correct,decision,2,decision2,lion
466,39,stapler,0.133633482252,right,1,correct,arm2,1,arm21,lion
467,39,rose,0.466949710215,left,1,correct,arm2,2,arm22,lion
468,39,lion,0.650425018111,left,1,correct,arm2,3,arm23,lion
469,40,lion,0.31693582468,space,0,wrong,target,NaN,targetNaN,lion
470,40,coffeepot,0.100421999516,left,0,wrong,path,1,path1,lion
471,40,mosquito,0.0840412943726,right,0,wrong,path,2,path2,lion
472,40,canoe,0.150271371649,left,0,wrong,path,3,path3,lion
473,40,domino,0.516927372615,left,0,wrong,decision,1,decision1,lion
474,40,ambulance,0.134295158176,right,0,wrong,arm1,1,arm11,lion
475,40,trunk,0.616926165178,left,0,wrong,arm1,2,arm12,lion
476,40,peach,0.0169267688962,left,0,wrong,arm1,3,arm13,lion
477,40,crutches,0.650652318282,left,0,wrong,decision,2,decision2,lion
478,40,stapler,0.200341101183,right,0,wrong,arm2,1,arm21,lion
479,40,rose,0.133687816951,left,0,wrong,arm2,2,arm22,lion
480,40,lion,1.13379135474,left,0,wrong,arm2,3,arm23,lion
481,41,lion,0.366896884811,space,1,correct,target,NaN,targetNaN,lion
482,41,coffeepot,1.10026986235,left,1,correct,path,1,path1,lion
483,41,mosquito,0.113465044675,right,1,correct,path,2,path2,lion
484,41,canoe,0.300239374546,left,1,correct,path,3,path3,lion
485,41,goose,0.650323895195,left,1,correct,decision,1,decision1,lion
486,41,sailor,0.150255976818,right,1,correct,arm1,1,arm11,lion
487,41,cooker,0.150543950736,right,1,correct,arm1,2,arm12,lion
488,41,tooth,0.0504072084041,left,1,correct,arm1,3,arm13,lion
489,41,crutches,0.50029370925,left,1,correct,decision,2,decision2,lion
490,41,stapler,0.183937454722,right,1,correct,arm2,1,arm21,lion
491,41,rose,0.416978688721,left,1,correct,arm2,2,arm22,lion
492,41,lion,0.0669246558809,left,1,correct,arm2,3,arm23,lion
493,42,bolt,0.383378712871,space,1,correct,target,NaN,targetNaN,bolt
494,42,coffeepot,0.150418075344,left,1,correct,path,1,path1,bolt
495,42,mosquito,0.100414151171,right,1,correct,path,2,path2,bolt
496,42,canoe,0.233599070272,left,1,correct,path,3,path3,bolt
497,42,domino,0.433974281576,right,1,correct,decision,1,decision1,bolt
498,42,ambulance,0.400230016905,right,1,correct,arm1,1,arm11,bolt
499,42,trunk,0.500262014006,left,1,correct,arm1,2,arm12,bolt
500,42,peach,0.0505617604431,left,1,correct,arm1,3,arm13,bolt
501,42,garlic,1.25029099252,right,1,correct,decision,2,decision2,bolt
502,42,mug,0.600262014006,right,1,correct,arm2,1,arm21,bolt
503,42,branch,0.083575827095,left,1,correct,arm2,2,arm22,bolt
504,42,bolt,0.166933409806,right,1,correct,arm2,3,arm23,bolt
505,43,lion,0.267165539724,space,1,correct,target,NaN,targetNaN,lion
506,43,coffeepot,0.150214320212,left,1,correct,path,1,path1,lion
507,43,mosquito,0.13415932142,right,1,correct,path,2,path2,lion
508,43,canoe,0.150252052643,left,1,correct,path,3,path3,lion
509,43,goose,1.46705868148,left,1,correct,decision,1,decision1,lion
510,43,sailor,0.200359514611,right,1,correct,arm1,1,arm11,lion
511,43,cooker,0.55024873219,right,1,correct,arm1,2,arm12,lion
512,43,tooth,0.350227903888,left,1,correct,arm1,3,arm13,lion
513,43,crutches,1.0169156001,left,1,correct,decision,2,decision2,lion
514,43,stapler,0.13357371408,right,1,correct,arm2,1,arm21,lion
515,43,rose,0.166900205264,left,1,correct,arm2,2,arm22,lion
516,43,lion,0.467148031876,left,1,correct,arm2,3,arm23,lion
517,44,lion,0.333631369234,space,1,correct,target,NaN,targetNaN,lion
518,44,coffeepot,0.166898695967,left,1,correct,path,1,path1,lion
519,44,mosquito,0.100261108428,right,1,correct,path,2,path2,lion
520,44,canoe,0.166927070757,left,1,correct,path,3,path3,lion
521,44,goose,0.667115732915,left,1,correct,decision,1,decision1,lion
522,44,sailor,0.167367483698,right,1,correct,arm1,1,arm11,lion
523,44,cooker,0.150232431781,right,1,correct,arm1,2,arm12,lion
524,44,tooth,0.1336174837,left,1,correct,arm1,3,arm13,lion
525,44,crutches,0.96698593335,right,1,correct,decision,2,decision2,lion
526,44,stapler,0.766918014973,right,1,correct,arm2,1,arm21,lion
527,44,rose,0.0669092610478,left,1,correct,arm2,2,arm22,lion
528,44,lion,0.133725851243,left,1,correct,arm2,3,arm23,lion
529,45,lion,0.400263221445,space,1,correct,target,NaN,targetNaN,lion
530,45,coffeepot,0.133761470659,left,1,correct,path,1,path1,lion
531,45,mosquito,0.133576128954,right,1,correct,path,2,path2,lion
532,45,canoe,0.183592127507,left,1,correct,path,3,path3,lion
533,45,goose,1.60045278918,right,1,correct,decision,1,decision1,lion
534,45,sailor,0.916917411254,right,1,correct,arm1,1,arm11,lion
535,45,cooker,0.566930994928,right,1,correct,arm1,2,arm12,lion
536,45,tooth,0.0335981646931,left,1,correct,arm1,3,arm13,lion
537,45,crutches,0.833591523786,right,1,correct,decision,2,decision2,lion
538,45,stapler,1.00027046607,right,1,correct,arm2,1,arm21,lion
539,45,rose,0.150622434196,left,1,correct,arm2,2,arm22,lion
540,45,lion,0.567220780005,left,1,correct,arm2,3,arm23,lion
541,46,bolt,0.750376418739,space,1,correct,target,NaN,targetNaN,bolt
542,46,coffeepot,1.61691046849,left,1,correct,path,1,path1,bolt
543,46,mosquito,0.233673629558,right,1,correct,path,2,path2,bolt
544,46,canoe,0.333576128955,left,1,correct,path,3,path3,bolt
545,46,domino,0.716967218064,left,1,correct,decision,1,decision1,bolt
546,46,ambulance,0.133379618448,right,1,correct,arm1,1,arm11,bolt
547,46,trunk,0.566928580052,left,1,correct,arm1,2,arm12,bolt
548,46,peach,0.0502285076072,left,1,correct,arm1,3,arm13,bolt
549,46,garlic,0.583687515093,right,1,correct,decision,2,decision2,bolt
550,46,mug,0.650309104081,right,1,correct,arm2,1,arm21,bolt
551,46,branch,0.0837922603241,left,1,correct,arm2,2,arm22,bolt
552,46,bolt,0.0669711422361,right,1,correct,arm2,3,arm23,bolt
553,47,lion,0.617226213475,space,1,correct,target,NaN,targetNaN,lion
554,47,coffeepot,0.350291596233,left,1,correct,path,1,path1,lion
555,47,mosquito,0.133588505192,right,1,correct,path,2,path2,lion
556,47,canoe,0.167127505434,left,1,correct,path,3,path3,lion
557,47,goose,0.433643745471,left,1,correct,decision,1,decision1,lion
558,47,sailor,0.183628048781,right,1,correct,arm1,1,arm11,lion
559,47,cooker,0.133616578121,right,1,correct,arm1,2,arm12,lion
560,47,tooth,0.133730680995,left,1,correct,arm1,3,arm13,lion
561,47,crutches,0.483711361989,left,1,correct,decision,2,decision2,lion
562,47,stapler,0.150345930935,right,1,correct,arm2,1,arm21,lion
563,47,rose,0.733671818401,left,1,correct,arm2,2,arm22,lion
564,47,lion,0.0502858609016,left,1,correct,arm2,3,arm23,lion
565,48,lion,0.55028797392,space,1,correct,target,NaN,targetNaN,lion
566,48,coffeepot,0.183775054335,left,1,correct,path,1,path1,lion
567,48,mosquito,0.183587599613,right,1,correct,path,2,path2,lion
568,48,canoe,0.250374909441,left,1,correct,path,3,path3,lion
569,48,goose,0.733610842792,left,1,correct,decision,1,decision1,lion
570,48,sailor,0.366948200919,right,1,correct,arm1,1,arm11,lion
571,48,cooker,0.133641934315,right,1,correct,arm1,2,arm12,lion
572,48,tooth,0.116939446994,left,1,correct,arm1,3,arm13,lion
573,48,crutches,0.866938541414,right,1,correct,decision,2,decision2,lion
574,48,stapler,1.6002680512,right,1,correct,arm2,1,arm21,lion
575,48,rose,0.483591523787,left,1,correct,arm2,2,arm22,lion
576,48,lion,0.433590316348,left,1,correct,arm2,3,arm23,lion
577,49,bolt,0.333807051436,space,1,correct,target,NaN,targetNaN,bolt
578,49,coffeepot,0.16697476455,left,1,correct,path,1,path1,bolt
579,49,mosquito,0.133802523544,right,1,correct,path,2,path2,bolt
580,49,canoe,0.166937937696,left,1,correct,path,3,path3,bolt
581,49,domino,0.383753622313,left,1,correct,decision,1,decision1,bolt
582,49,ambulance,0.366984122193,right,1,correct,arm1,1,arm11,bolt
583,49,trunk,0.300252958223,left,1,correct,arm1,2,arm12,bolt
584,49,peach,0.116978688724,left,1,correct,arm1,3,arm13,bolt
585,49,garlic,1.21712992031,right,1,correct,decision,2,decision2,bolt
586,49,mug,0.733892477661,right,1,correct,arm2,1,arm21,bolt
587,49,branch,0.550495351365,left,1,correct,arm2,2,arm22,bolt
588,49,bolt,0.533706834098,right,1,correct,arm2,3,arm23,bolt
589,50,lion,0.216910770345,space,1,correct,target,NaN,targetNaN,lion
590,50,coffeepot,0.184120683411,left,1,correct,path,1,path1,lion
591,50,mosquito,0.150295822265,right,1,correct,path,2,path2,lion
592,50,canoe,0.133624426468,left,1,correct,path,3,path3,lion
593,50,goose,0.800308802221,right,1,correct,decision,1,decision1,lion
594,50,sailor,0.583566167592,right,1,correct,arm1,1,arm11,lion
595,50,cooker,0.483588807052,right,1,correct,arm1,2,arm12,lion
596,50,tooth,0.817411555181,left,1,correct,arm1,3,arm13,lion
597,50,crutches,1.35037279643,right,1,correct,decision,2,decision2,lion
598,50,stapler,0.983713173147,right,1,correct,arm2,1,arm21,lion
599,50,rose,0.433584581018,left,1,correct,arm2,2,arm22,lion
600,50,lion,0.650244506158,left,1,correct,arm2,3,arm23,lion
