pic_index,trial_num,pic_name,rt,resp,feedback_code,feedback,segment,segment_index,pic_type,trial_target
1,1,beaver,1.73356572472,space,1,correct,target,NaN,targetNaN,beaver
2,1,trophy,1.11691643509,right,1,correct,path,1,path1,beaver
3,1,astronaut,0.0503395614951,right,1,correct,path,2,path2,beaver
4,1,robot,0.383557483967,right,1,correct,path,3,path3,beaver
5,1,pigeon,1.43361027915,left,1,correct,decision,1,decision1,beaver
6,1,bus,0.716928750948,right,1,correct,arm1,1,arm11,beaver
7,1,deer,0.433417692938,left,1,correct,arm1,2,arm12,beaver
8,1,fist,1.16690101008,right,1,correct,arm1,3,arm13,beaver
9,1,stepladder,0.75028631352,right,1,correct,decision,2,decision2,beaver
10,1,calc,0.866677513477,right,1,correct,arm2,1,arm21,beaver
11,1,tongue,0.500301255553,right,1,correct,arm2,2,arm22,beaver
12,1,beaver,0.233586251155,left,1,correct,arm2,3,arm23,beaver
13,2,beaver,4.90025664075,space,1,correct,target,NaN,targetNaN,beaver
14,2,trophy,1.05021217688,right,1,correct,path,1,path1,beaver
15,2,astronaut,0.0336023704403,right,1,correct,path,2,path2,beaver
16,2,robot,0.0168998932022,right,1,correct,path,3,path3,beaver
17,2,pigeon,0.517051124697,right,1,correct,decision,1,decision1,beaver
18,2,bus,1.61716033738,right,1,correct,arm1,1,arm11,beaver
19,2,deer,1.95023789529,left,1,correct,arm1,2,arm12,beaver
20,2,fist,4.58353472378,right,1,correct,arm1,3,arm13,beaver
21,2,stepladder,1.73358655301,left,1,correct,decision,2,decision2,beaver
22,2,calc,1.03359754069,right,1,correct,arm2,1,arm21,beaver
23,2,tongue,0.400887828491,right,1,correct,arm2,2,arm22,beaver
24,2,beaver,0.266931437496,left,1,correct,arm2,3,arm23,beaver
25,3,arc,0.767010222766,space,1,correct,target,NaN,targetNaN,arc
26,3,trophy,0.800248550924,right,1,correct,path,1,path1,arc
27,3,astronaut,0.400540690328,right,1,correct,path,2,path2,arc
28,3,robot,0.0835854361349,right,1,correct,path,3,path3,arc
29,3,watch,0.583682332962,right,1,correct,decision,1,decision1,arc
30,3,clover,0.633577859468,left,1,correct,arm1,1,arm11,arc
31,3,radio,0.0836639195459,right,1,correct,arm1,2,arm12,arc
32,3,wing,0.200299021795,left,1,correct,arm1,3,arm13,arc
33,3,holly,0.450444065174,left,1,correct,decision,2,decision2,arc
34,3,match,0.10026859438,right,1,correct,arm2,1,arm21,arc
35,3,baby,0.0502502111503,left,1,correct,arm2,2,arm22,arc
36,3,arc,0.400277167184,left,1,correct,arm2,3,arm23,arc
37,4,beaver,0.150237774549,space,1,correct,target,NaN,targetNaN,beaver
38,4,trophy,0.500314839221,right,1,correct,path,1,path1,beaver
39,4,astronaut,0.100879557546,right,1,correct,path,2,path2,beaver
40,4,robot,0.0337022858594,right,1,correct,path,3,path3,beaver
41,4,pigeon,0.350924685507,left,1,correct,decision,1,decision1,beaver
42,4,bus,0.583524460562,right,1,correct,arm1,1,arm11,beaver
43,4,deer,0.100318703019,left,1,correct,arm1,2,arm12,beaver
44,4,fist,0.483418870189,right,1,correct,arm1,3,arm13,beaver
45,4,stepladder,0.467029421016,left,1,correct,decision,2,decision2,beaver
46,4,calc,0.116994314782,right,1,correct,arm2,1,arm21,beaver
47,4,tongue,0.31693140731,right,1,correct,arm2,2,arm22,beaver
48,4,beaver,0.133401875512,left,1,correct,arm2,3,arm23,beaver
49,5,beaver,0.283885363508,space,1,correct,target,NaN,targetNaN,beaver
50,5,trophy,0.433428258013,right,1,correct,path,1,path1,beaver
51,5,astronaut,0.050261681803,right,1,correct,path,2,path2,beaver
52,5,robot,0.0669415195953,right,1,correct,path,3,path3,beaver
53,5,pigeon,0.316921747813,left,1,correct,decision,1,decision1,beaver
54,5,bus,0.134286625038,right,1,correct,arm1,1,arm11,beaver
55,5,deer,0.0835603818159,left,1,correct,arm1,2,arm12,beaver
56,5,fist,0.0669563107003,right,1,correct,arm1,3,arm13,beaver
57,5,stepladder,0.716970105668,right,1,correct,decision,2,decision2,beaver
58,5,calc,0.250263674075,right,1,correct,arm2,1,arm21,beaver
59,5,tongue,0.600206713229,right,1,correct,arm2,2,arm22,beaver
60,5,beaver,0.317031926447,left,1,correct,arm2,3,arm23,beaver
61,6,arc,0.267571681012,space,1,correct,target,NaN,targetNaN,arc
62,6,trophy,0.666965607966,right,1,correct,path,1,path1,arc
63,6,astronaut,0.0336500642052,right,1,correct,path,2,path2,arc
64,6,robot,0.0336144448111,right,1,correct,path,3,path3,arc
65,6,watch,0.366946771947,left,1,correct,decision,1,decision1,arc
66,6,clover,0.284214993832,left,1,correct,arm1,1,arm11,arc
67,6,radio,0.0669173708538,right,1,correct,arm1,2,arm12,arc
68,6,wing,0.30043691111,left,1,correct,arm1,3,arm13,arc
69,6,holly,0.567033888533,right,1,correct,decision,2,decision2,arc
70,6,match,0.283601012075,right,1,correct,arm2,1,arm21,arc
71,6,baby,0.0502858305454,left,1,correct,arm2,2,arm22,arc
72,6,arc,0.283536414189,left,1,correct,arm2,3,arm23,arc
73,7,arc,0.350306779578,space,1,correct,target,NaN,targetNaN,arc
74,7,trophy,0.850322476261,right,1,correct,path,1,path1,arc
75,7,astronaut,0.0169816970647,right,1,correct,path,2,path2,arc
76,7,robot,0.0335555822539,right,1,correct,path,3,path3,arc
77,7,watch,0.666993680878,right,1,correct,decision,1,decision1,arc
78,7,clover,0.150310522634,left,1,correct,arm1,1,arm11,arc
79,7,radio,0.0336564032505,right,1,correct,arm1,2,arm12,arc
80,7,wing,0.000237261388065,left,1,correct,arm1,3,arm13,arc
81,7,holly,0.833662863039,left,1,correct,decision,2,decision2,arc
82,7,match,0.133580274342,right,1,correct,arm2,1,arm21,arc
83,7,baby,0.0502622855211,left,1,correct,arm2,2,arm22,arc
84,7,arc,0.433617523776,left,1,correct,arm2,3,arm23,arc
85,8,beaver,0.600318703019,space,-1,miss,target,NaN,targetNaN,beaver
86,8,trophy,0.283641461217,right,-1,miss,path,1,path1,beaver
87,8,astronaut,0.0338151812275,right,-1,miss,path,2,path2,beaver
88,8,robot,0.0169210233507,right,-1,miss,path,3,path3,beaver
89,8,watch,0.167032318865,left,-1,miss,decision,1,decision1,beaver
90,8,clover,0.683566962348,left,-1,miss,arm1,1,arm11,beaver
91,8,radio,0.0502622855211,right,-1,miss,arm1,2,arm12,beaver
92,8,wing,0.150504014427,left,-1,miss,arm1,3,arm13,beaver
93,8,holly,0.26696705689,right,-1,miss,decision,2,decision2,beaver
94,8,match,0.266984262868,right,-1,miss,arm2,1,arm21,beaver
95,8,baby,0.000234544654631,left,-1,miss,arm2,2,arm22,beaver
96,8,arc,0.86691688788,left,-1,miss,arm2,3,arm23,beaver
97,9,beaver,0.300325525039,space,1,correct,target,NaN,targetNaN,beaver
98,9,trophy,0.466999536948,right,1,correct,path,1,path1,beaver
99,9,astronaut,0.0175268549101,right,1,correct,path,2,path2,beaver
100,9,robot,0.000421093684963,right,1,correct,path,3,path3,beaver
101,9,pigeon,0.283601917651,left,1,correct,decision,1,decision1,beaver
102,9,bus,0.0839600434911,right,1,correct,arm1,1,arm11,beaver
103,9,deer,0.0503754827478,left,1,correct,arm1,2,arm12,beaver
104,9,fist,0.0169258530996,right,1,correct,arm1,3,arm13,beaver
105,9,stepladder,0.616928811321,left,1,correct,decision,2,decision2,beaver
106,9,calc,0.0836829366799,right,1,correct,arm2,1,arm21,beaver
107,9,tongue,0.183571490236,right,1,correct,arm2,2,arm22,beaver
108,9,beaver,0.2669380784,left,1,correct,arm2,3,arm23,beaver
109,10,beaver,0.266987583321,space,1,correct,target,NaN,targetNaN,beaver
110,10,trophy,0.416913235382,right,1,correct,path,1,path1,beaver
111,10,astronaut,0.0169252493806,right,1,correct,path,2,path2,beaver
112,10,robot,0.0168914411433,right,1,correct,path,3,path3,beaver
113,10,pigeon,0.283580183784,left,1,correct,decision,1,decision1,beaver
114,10,bus,0.0502957919007,right,1,correct,arm1,1,arm11,beaver
115,10,deer,0.0669711018036,left,1,correct,arm1,2,arm12,beaver
116,10,fist,0.0169599631972,right,1,correct,arm1,3,arm13,beaver
117,10,stepladder,0.550753108697,right,1,correct,decision,2,decision2,beaver
118,10,calc,0.150235963392,right,1,correct,arm2,1,arm21,beaver
119,10,tongue,1.33356113646,right,1,correct,arm2,2,arm22,beaver
120,10,beaver,0.43359096016,left,1,correct,arm2,3,arm23,beaver
121,11,arc,0.333630564097,space,1,correct,target,NaN,targetNaN,arc
122,11,trophy,0.566922502461,right,1,correct,path,1,path1,arc
123,11,astronaut,0.0169053266691,right,1,correct,path,2,path2,arc
124,11,robot,0.0335788254179,right,1,correct,path,3,path3,arc
125,11,watch,0.350311911186,right,1,correct,decision,1,decision1,arc
126,11,clover,0.150256791683,left,1,correct,arm1,1,arm11,arc
127,11,radio,0.0336488567682,right,1,correct,arm1,2,arm12,arc
128,11,wing,0.0669855910501,left,1,correct,arm1,3,arm13,arc
129,11,holly,0.917029451201,right,1,correct,decision,2,decision2,arc
130,11,match,0.216930562105,right,1,correct,arm2,1,arm21,arc
131,11,baby,0.000319065250551,left,1,correct,arm2,2,arm22,arc
132,11,arc,0.983653414843,left,1,correct,arm2,3,arm23,arc
133,12,beaver,0.650906392836,space,-1,miss,target,NaN,targetNaN,beaver
134,12,trophy,0.650218757414,right,-1,miss,path,1,path1,beaver
135,12,astronaut,0.016912571291,right,-1,miss,path,2,path2,beaver
136,12,robot,0.0169240419445,right,-1,miss,path,3,path3,beaver
137,12,pigeon,0.333422583058,right,-1,miss,decision,1,decision1,beaver
138,12,bus,0.250286615378,right,-1,miss,arm1,1,arm11,beaver
139,12,deer,0.116930018758,left,-1,miss,arm1,2,arm12,beaver
140,12,fist,1.03368055199,right,-1,miss,arm1,3,arm13,beaver
141,12,holly,2.13363611831,left,-1,miss,decision,2,decision2,beaver
142,12,match,0.0833877183122,right,-1,miss,arm2,1,arm21,beaver
143,12,baby,0.100269198098,left,-1,miss,arm2,2,arm22,beaver
144,12,arc,0.40038251607,left,-1,miss,arm2,3,arm23,beaver
145,13,arc,0.350398242937,space,1,correct,target,NaN,targetNaN,arc
146,13,trophy,0.467117262064,right,1,correct,path,1,path1,arc
147,13,astronaut,0.0169258530996,right,1,correct,path,2,path2,arc
148,13,robot,0.000454298205113,right,1,correct,path,3,path3,arc
149,13,watch,0.233658093662,left,1,correct,decision,1,decision1,arc
150,13,clover,0.300260927155,left,1,correct,arm1,1,arm11,arc
151,13,radio,0.0336075020477,right,1,correct,arm1,2,arm12,arc
152,13,wing,0.100238710312,left,1,correct,arm1,3,arm13,arc
153,13,holly,0.450764941582,right,1,correct,decision,2,decision2,arc
154,13,match,0.283545168109,right,1,correct,arm2,1,arm21,arc
155,13,baby,0.233635152357,left,1,correct,arm2,2,arm22,arc
156,13,arc,0.600324438346,left,1,correct,arm2,3,arm23,arc
157,14,beaver,0.517005845806,space,1,correct,target,NaN,targetNaN,beaver
158,14,trophy,0.483742765187,right,1,correct,path,1,path1,beaver
159,14,astronaut,0.0169590576188,right,1,correct,path,2,path2,beaver
160,14,robot,0.0169222307886,right,1,correct,path,3,path3,beaver
161,14,pigeon,0.350358699373,right,1,correct,decision,1,decision1,beaver
162,14,bus,0.267107723311,right,1,correct,arm1,1,arm11,beaver
163,14,deer,0.168029963759,left,1,correct,arm1,2,arm12,beaver
164,14,fist,0.533615954108,right,1,correct,arm1,3,arm13,beaver
165,14,stepladder,0.917130875917,right,1,correct,decision,2,decision2,beaver
166,14,calc,0.300257606702,right,1,correct,arm2,1,arm21,beaver
167,14,tongue,1.88357408623,right,1,correct,arm2,2,arm22,beaver
168,14,beaver,0.383598838687,left,1,correct,arm2,3,arm23,beaver
169,15,arc,0.517023353645,space,1,correct,target,NaN,targetNaN,arc
170,15,trophy,0.200303247824,right,1,correct,path,1,path1,arc
171,15,astronaut,0.0502505130098,right,1,correct,path,2,path2,arc
172,15,robot,0.00038637986836,right,1,correct,path,3,path3,arc
173,15,watch,0.400227058544,right,1,correct,decision,1,decision1,arc
174,15,clover,0.266736738266,left,1,correct,arm1,1,arm11,arc
175,15,radio,0.0343063062628,right,1,correct,arm1,2,arm12,arc
176,15,wing,0.116930018758,left,1,correct,arm1,3,arm13,arc
177,15,holly,0.733585345577,right,1,correct,decision,2,decision2,arc
178,15,match,0.217408707191,right,1,correct,arm2,1,arm21,arc
179,15,baby,0.0336020685809,left,1,correct,arm2,2,arm22,arc
180,15,arc,0.467140505228,left,1,correct,arm2,3,arm23,arc
181,16,arc,0.283620632927,space,1,correct,target,NaN,targetNaN,arc
182,16,trophy,0.450263855189,right,1,correct,path,1,path1,arc
183,16,astronaut,0.016729946432,right,1,correct,path,2,path2,arc
184,16,robot,0.000403283986998,right,1,correct,path,3,path3,arc
185,16,watch,0.216977048432,left,1,correct,decision,1,decision1,arc
186,16,clover,0.250227149102,left,1,correct,arm1,1,arm11,arc
187,16,radio,0.0169007987806,right,1,correct,arm1,2,arm12,arc
188,16,wing,0.0167314557284,left,1,correct,arm1,3,arm13,arc
189,16,holly,0.650295429669,right,1,correct,decision,2,decision2,arc
190,16,match,0.23351833282,right,1,correct,arm2,1,arm21,arc
191,16,baby,0.000390605898247,left,1,correct,arm2,2,arm22,arc
192,16,arc,0.416933158094,left,1,correct,arm2,3,arm23,arc
193,17,arc,0.516965698524,space,1,correct,target,NaN,targetNaN,arc
194,17,trophy,0.166933309024,right,1,correct,path,1,path1,arc
195,17,astronaut,0.0503410707915,right,1,correct,path,2,path2,arc
196,17,robot,0.0169107601359,right,1,correct,path,3,path3,arc
197,17,watch,3.16692395139,left,1,correct,decision,1,decision1,arc
198,17,clover,0.383604574014,left,1,correct,arm1,1,arm11,arc
199,17,radio,0.0502311940163,right,1,correct,arm1,2,arm12,arc
200,17,wing,2.13357031299,left,1,correct,arm1,3,arm13,arc
201,17,holly,0.733606475726,right,1,correct,decision,2,decision2,arc
202,17,match,0.283566298257,right,1,correct,arm2,1,arm21,arc
203,17,baby,0.000236959528593,left,1,correct,arm2,2,arm22,arc
204,17,arc,0.483611456404,left,1,correct,arm2,3,arm23,arc
205,18,beaver,0.550473888871,space,1,correct,target,NaN,targetNaN,beaver
206,18,trophy,0.516885102098,right,1,correct,path,1,path1,beaver
207,18,astronaut,0.0502339107497,right,1,correct,path,2,path2,beaver
208,18,robot,0.016907137825,right,1,correct,path,3,path3,beaver
209,18,pigeon,0.500336874947,left,1,correct,decision,1,decision1,beaver
210,18,bus,0.100374245126,right,1,correct,arm1,1,arm11,beaver
211,18,deer,0.10026859438,left,1,correct,arm1,2,arm12,beaver
212,18,fist,1.16689135059,right,1,correct,arm1,3,arm13,beaver
213,18,stepladder,0.516939134907,right,1,correct,decision,2,decision2,beaver
214,18,calc,0.233612211053,right,1,correct,arm2,1,arm21,beaver
215,18,tongue,0.183731173792,right,1,correct,arm2,2,arm22,beaver
216,18,beaver,0.333651694245,left,1,correct,arm2,3,arm23,beaver
217,19,arc,0.417168608326,space,1,correct,target,NaN,targetNaN,arc
218,19,trophy,0.283562977806,right,1,correct,path,1,path1,arc
219,19,astronaut,0.000287068168291,right,1,correct,path,2,path2,arc
220,19,robot,0.000332347058247,right,1,correct,path,3,path3,arc
221,19,watch,0.233651150899,left,1,correct,decision,1,decision1,arc
222,19,clover,0.283535810471,left,1,correct,arm1,1,arm11,arc
223,19,radio,0.000390002179302,right,1,correct,arm1,2,arm12,arc
224,19,wing,0.501186608798,left,1,correct,arm1,3,arm13,arc
225,19,holly,0.416973003517,right,1,correct,decision,2,decision2,arc
226,19,match,0.2169906321,right,1,correct,arm2,1,arm21,arc
227,19,baby,0.000267749174782,left,1,correct,arm2,2,arm22,arc
228,19,arc,0.300245532332,left,1,correct,arm2,3,arm23,arc
229,20,arc,0.950564205165,space,1,correct,target,NaN,targetNaN,arc
230,20,trophy,0.750360269041,right,1,correct,path,1,path1,arc
231,20,astronaut,0.0167827718042,right,1,correct,path,2,path2,arc
232,20,robot,0.000953875300183,right,1,correct,path,3,path3,arc
233,20,watch,0.25031106598,left,1,correct,decision,1,decision1,arc
234,20,clover,0.200282419535,left,1,correct,arm1,1,arm11,arc
235,20,radio,0.0504056686759,right,1,correct,arm1,2,arm12,arc
236,20,wing,0.683595337119,left,1,correct,arm1,3,arm13,arc
237,20,holly,0.866961261193,right,1,correct,decision,2,decision2,arc
238,20,match,0.266951963927,right,1,correct,arm2,1,arm21,arc
239,20,baby,0.000248128320891,left,1,correct,arm2,2,arm22,arc
240,20,arc,1.43335973596,left,1,correct,arm2,3,arm23,arc
