pic_index,trial_num,pic_name,rt,resp,feedback_code,feedback,segment,segment_index,pic_type,trial_target
1,1,lion,15.8167723275,space,-1,miss,target,NaN,targetNaN,lion
2,1,coffeepot,14.883383613,left,-1,miss,path,1,path1,lion
3,1,mosquito,0.800261832733,left,-1,miss,path,2,path2,lion
4,1,canoe,1.10024142705,right,-1,miss,path,3,path3,lion
5,1,goose,6.91689995357,right,-1,miss,decision,1,decision1,lion
6,1,sailor,10.1501254829,right,-1,miss,arm1,1,arm11,lion
7,1,cooker,6.5001726635,right,-1,miss,arm1,2,arm12,lion
8,1,tooth,0.983612965701,left,-1,miss,arm1,3,arm13,lion
9,1,garlic,6.40023188829,left,-1,miss,decision,2,decision2,lion
10,1,mug,6.1003196086,right,-1,miss,arm2,1,arm21,lion
11,1,branch,3.26688676232,right,-1,miss,arm2,2,arm22,lion
12,1,bolt,1.18368680048,right,-1,miss,arm2,3,arm23,lion
13,2,lion,7.86688670195,space,-1,miss,target,NaN,targetNaN,lion
14,2,coffeepot,2.21689977246,left,-1,miss,path,1,path1,lion
15,2,mosquito,0.533586371899,left,-1,miss,path,2,path2,lion
16,2,canoe,0.650214833244,right,-1,miss,path,3,path3,lion
17,2,goose,6.18404540929,left,-1,miss,decision,1,decision1,lion
18,2,sailor,5.133531675,right,-1,miss,arm1,1,arm11,lion
19,2,cooker,5.38348201915,right,-1,miss,arm1,2,arm12,lion
20,2,tooth,0.767300611386,left,-1,miss,arm1,3,arm13,lion
21,2,garlic,1.53367843898,right,-1,miss,decision,2,decision2,lion
22,2,mug,2.6668853134,right,-1,miss,arm2,1,arm21,lion
23,2,branch,0.733614625927,right,-1,miss,arm2,2,arm22,lion
24,2,bolt,0.283589541421,right,-1,miss,arm2,3,arm23,lion
25,3,lion,0.733642095121,space,-1,miss,target,NaN,targetNaN,lion
26,3,coffeepot,3.55037548275,left,-1,miss,path,1,path1,lion
27,3,mosquito,0.51694245536,left,-1,miss,path,2,path2,lion
28,3,canoe,0.716912450548,right,-1,miss,path,3,path3,lion
29,3,goose,1.51691045828,left,-1,miss,decision,1,decision1,lion
30,3,sailor,5.51689657275,right,-1,miss,arm1,1,arm11,lion
31,3,cooker,4.18356937722,right,-1,miss,arm1,2,arm12,lion
32,3,tooth,0.533748772187,left,-1,miss,arm1,3,arm13,lion
33,3,garlic,1.1501758934,right,-1,miss,decision,2,decision2,lion
34,3,mug,1.95028860765,right,-1,miss,arm2,1,arm21,lion
35,3,branch,0.433615108902,right,-1,miss,arm2,2,arm22,lion
36,3,bolt,0.200246196423,right,-1,miss,arm2,3,arm23,lion
37,4,bolt,8.30027330338,space,0,wrong,target,NaN,targetNaN,bolt
38,4,coffeepot,4.96717884136,left,0,wrong,path,1,path1,bolt
39,4,mosquito,0.516970528271,left,0,wrong,path,2,path2,bolt
40,4,canoe,0.484110127922,right,0,wrong,path,3,path3,bolt
41,4,goose,1.38434111064,right,0,wrong,decision,1,decision1,bolt
42,4,sailor,3.4835477641,right,0,wrong,arm1,1,arm11,bolt
43,4,cooker,4.80019995158,right,0,wrong,arm1,2,arm12,bolt
44,4,tooth,0.550237834921,left,0,wrong,arm1,3,arm13,bolt
45,4,garlic,1.31705033986,left,0,wrong,decision,2,decision2,bolt
46,4,mug,1.60027161297,right,0,wrong,arm2,1,arm21,bolt
47,4,branch,0.500254467366,right,0,wrong,arm2,2,arm22,bolt
48,4,bolt,0.484112542796,right,0,wrong,arm2,3,arm23,bolt
49,5,lion,0.583695011051,space,-1,miss,target,NaN,targetNaN,lion
50,5,coffeepot,3.30001279883,left,-1,miss,path,1,path1,lion
51,5,mosquito,0.466949126449,left,-1,miss,path,2,path2,lion
52,5,canoe,0.450246649211,right,-1,miss,path,3,path3,lion
53,5,goose,3.33357502199,right,-1,miss,decision,1,decision1,lion
54,5,sailor,7.81695827279,right,-1,miss,arm1,1,arm11,lion
55,5,cooker,1.76693023006,right,-1,miss,arm1,2,arm12,lion
56,5,tooth,1.08358936031,left,-1,miss,arm1,3,arm13,lion
57,5,garlic,0.93358703599,right,-1,miss,decision,2,decision2,lion
58,5,mug,1.78355844992,right,-1,miss,arm2,1,arm21,lion
59,5,branch,8.35012536216,right,-1,miss,arm2,2,arm22,lion
60,5,bolt,0.60006121706,right,-1,miss,arm2,3,arm23,lion
61,6,bolt,0.716949579239,space,0,wrong,target,NaN,targetNaN,bolt
62,6,coffeepot,4.83364444962,left,0,wrong,path,1,path1,bolt
63,6,mosquito,0.183571188378,left,0,wrong,path,2,path2,bolt
64,6,canoe,0.114181590086,right,0,wrong,path,3,path3,bolt
65,6,goose,2.90024305709,right,0,wrong,decision,1,decision1,bolt
66,6,sailor,1.66765596012,right,0,wrong,arm1,1,arm11,bolt
67,6,cooker,1.28369368287,right,0,wrong,arm1,2,arm12,bolt
68,6,tooth,0.400238227337,left,0,wrong,arm1,3,arm13,bolt
69,6,garlic,0.816918125502,right,0,wrong,decision,2,decision2,bolt
70,6,mug,1.33381258524,right,0,wrong,arm2,1,arm21,bolt
71,6,branch,0.450053459277,right,0,wrong,arm2,2,arm22,bolt
72,6,bolt,0.266910609207,right,0,wrong,arm2,3,arm23,bolt
73,7,bolt,0.850361717966,space,0,wrong,target,NaN,targetNaN,bolt
74,7,coffeepot,4.90044952883,left,0,wrong,path,1,path1,bolt
75,7,mosquito,0.466969954739,left,0,wrong,path,2,path2,bolt
76,7,canoe,0.316966724845,right,0,wrong,path,3,path3,bolt
77,7,goose,1.8836676626,left,0,wrong,decision,1,decision1,bolt
78,7,sailor,1.48355772545,right,0,wrong,arm1,1,arm11,bolt
79,7,cooker,0.50028193656,right,0,wrong,arm1,2,arm12,bolt
80,7,tooth,1.58357638036,left,0,wrong,arm1,3,arm13,bolt
81,7,garlic,0.800280548007,left,0,wrong,decision,2,decision2,bolt
82,7,mug,1.90026086678,right,0,wrong,arm2,1,arm21,bolt
83,7,branch,0.416972399799,right,0,wrong,arm2,2,arm22,bolt
84,7,bolt,0.616920962979,right,0,wrong,arm2,3,arm23,bolt
85,8,lion,1.55031782763,space,-1,miss,target,NaN,targetNaN,lion
86,8,coffeepot,5.66682584712,left,-1,miss,path,1,path1,lion
87,8,mosquito,0.483612361983,left,-1,miss,path,2,path2,lion
88,8,canoe,0.333589209376,right,-1,miss,path,3,path3,lion
89,8,goose,1.55025624834,right,-1,miss,decision,1,decision1,lion
90,8,sailor,2.15032169143,right,-1,miss,arm1,1,arm11,lion
91,8,cooker,0.267287933296,right,-1,miss,arm1,2,arm12,lion
92,8,tooth,0.5169503037,left,-1,miss,arm1,3,arm13,lion
93,8,garlic,0.716970407528,left,-1,miss,decision,2,decision2,lion
94,8,mug,1.21684875824,right,-1,miss,arm2,1,arm21,lion
95,8,branch,0.233835586914,right,-1,miss,arm2,2,arm22,lion
96,8,bolt,0.300375331819,right,-1,miss,arm2,3,arm23,lion
97,9,lion,0.300346957047,space,-1,miss,target,NaN,targetNaN,lion
98,9,coffeepot,3.7337000521,left,-1,miss,path,1,path1,lion
99,9,mosquito,0.150254980527,left,-1,miss,path,2,path2,lion
100,9,canoe,0.200253441045,right,-1,miss,path,3,path3,lion
101,9,goose,0.700336150485,right,-1,miss,decision,1,decision1,lion
102,9,sailor,0.766985470306,right,-1,miss,arm1,1,arm11,lion
103,9,cooker,0.483700806749,right,-1,miss,arm1,2,arm12,lion
104,9,tooth,0.216987915366,left,-1,miss,arm1,3,arm13,lion
105,9,garlic,0.583703161252,left,-1,miss,decision,2,decision2,lion
106,9,mug,1.48357432771,right,-1,miss,arm2,1,arm21,lion
107,9,branch,0.500318159673,right,-1,miss,arm2,2,arm22,lion
108,9,bolt,4.85020233627,right,-1,miss,arm2,3,arm23,lion
109,10,bolt,0.750313782713,space,1,correct,target,NaN,targetNaN,bolt
110,10,coffeepot,2.41689542568,left,1,correct,path,1,path1,bolt
111,10,mosquito,0.466913808915,left,1,correct,path,2,path2,bolt
112,10,canoe,0.833603698621,right,1,correct,path,3,path3,bolt
113,10,domino,3.68360590219,right,1,correct,decision,1,decision1,bolt
114,10,ambulance,4.63353076942,right,1,correct,arm1,1,arm11,bolt
115,10,trunk,1.1835880925,left,1,correct,arm1,2,arm12,bolt
116,10,peach,1.38358042527,left,1,correct,arm1,3,arm13,bolt
117,10,garlic,1.53365187536,right,1,correct,decision,2,decision2,bolt
118,10,mug,2.90077553684,right,1,correct,arm2,1,arm21,bolt
119,10,branch,0.417025225172,right,1,correct,arm2,2,arm22,bolt
120,10,bolt,0.36690420979,right,1,correct,arm2,3,arm23,bolt
121,11,lion,1.10035643543,space,-1,miss,target,NaN,targetNaN,lion
122,11,coffeepot,0.800266360622,left,-1,miss,path,1,path1,lion
123,11,mosquito,0.266939587696,left,-1,miss,path,2,path2,lion
124,11,canoe,2.25025793875,right,-1,miss,path,3,path3,lion
125,11,domino,2.21703319426,left,-1,miss,decision,1,decision1,lion
126,11,ambulance,2.68354009687,right,-1,miss,arm1,1,arm11,lion
127,11,trunk,0.716930863963,left,-1,miss,arm1,2,arm12,lion
128,11,peach,0.450289211368,left,-1,miss,arm1,3,arm13,lion
129,11,garlic,1.00039603937,right,-1,miss,decision,2,decision2,lion
130,11,mug,1.06692129502,right,-1,miss,arm2,1,arm21,lion
131,11,branch,0.450267477501,right,-1,miss,arm2,2,arm22,lion
132,11,bolt,0.250332799847,right,-1,miss,arm2,3,arm23,lion
133,12,lion,1.53367783526,space,-1,miss,target,NaN,targetNaN,lion
134,12,coffeepot,9.61717814708,left,-1,miss,path,1,path1,lion
135,12,mosquito,0.233761027674,left,-1,miss,path,2,path2,lion
136,12,canoe,0.166929686712,right,-1,miss,path,3,path3,lion
137,12,goose,7.0669222006,right,-1,miss,decision,1,decision1,lion
138,12,sailor,1.85024942632,right,-1,miss,arm1,1,arm11,lion
139,12,cooker,0.417368439164,right,-1,miss,arm1,2,arm12,lion
140,12,tooth,0.333611546962,left,-1,miss,arm1,3,arm13,lion
141,12,garlic,2.43370506296,left,-1,miss,decision,2,decision2,lion
142,12,mug,1.20024166853,right,-1,miss,arm2,1,arm21,lion
143,12,branch,0.468033706814,right,-1,miss,arm2,2,arm22,lion
144,12,bolt,0.450681930281,right,-1,miss,arm2,3,arm23,lion
145,13,bolt,0.350329720883,space,1,correct,target,NaN,targetNaN,bolt
146,13,coffeepot,0.750276050304,left,1,correct,path,1,path1,bolt
147,13,mosquito,0.0335607138609,left,1,correct,path,2,path2,bolt
148,13,canoe,0.0502375330611,right,1,correct,path,3,path3,bolt
149,13,domino,1.11698707016,right,1,correct,decision,1,decision1,bolt
150,13,ambulance,1.33360732093,right,1,correct,arm1,1,arm11,bolt
151,13,trunk,0.483611758264,left,1,correct,arm1,2,arm12,bolt
152,13,peach,0.283576863332,left,1,correct,arm1,3,arm13,bolt
153,13,garlic,2.90033361487,left,1,correct,decision,2,decision2,bolt
154,13,mug,3.78354758298,right,1,correct,arm2,1,arm21,bolt
155,13,branch,0.233699750242,right,1,correct,arm2,2,arm22,bolt
156,13,bolt,0.350242181694,right,1,correct,arm2,3,arm23,bolt
157,14,bolt,1.25054168646,space,0,wrong,target,NaN,targetNaN,bolt
158,14,coffeepot,0.916925611612,left,0,wrong,path,1,path1,bolt
159,14,mosquito,0.0169119675729,left,0,wrong,path,2,path2,bolt
160,14,canoe,0.284458896125,right,0,wrong,path,3,path3,bolt
161,14,goose,2.53372673646,left,0,wrong,decision,1,decision1,bolt
162,14,sailor,1.38369815039,right,0,wrong,arm1,1,arm11,bolt
163,14,cooker,0.166908254704,right,0,wrong,arm1,2,arm12,bolt
164,14,tooth,0.516937323752,left,0,wrong,arm1,3,arm13,bolt
165,14,garlic,1.61702510443,right,0,wrong,decision,2,decision2,bolt
166,14,mug,1.20023925366,right,0,wrong,arm2,1,arm21,bolt
167,14,branch,0.234013683885,right,0,wrong,arm2,2,arm22,bolt
168,14,bolt,0.383727430737,right,0,wrong,arm2,3,arm23,bolt
169,15,bolt,1.95029977644,space,1,correct,target,NaN,targetNaN,bolt
170,15,coffeepot,1.55028462311,left,1,correct,path,1,path1,bolt
171,15,mosquito,0.000240279980517,left,1,correct,path,2,path2,bolt
172,15,canoe,0.0169104582765,right,1,correct,path,3,path3,bolt
173,15,domino,0.783416877918,left,1,correct,decision,1,decision1,bolt
174,15,ambulance,0.866770184273,right,1,correct,arm1,1,arm11,bolt
175,15,trunk,0.31699781635,left,1,correct,arm1,2,arm12,bolt
176,15,peach,0.233415096948,left,1,correct,arm1,3,arm13,bolt
177,15,garlic,1.4002889397,left,1,correct,decision,2,decision2,bolt
178,15,mug,0.417456883931,right,1,correct,arm2,1,arm21,bolt
179,15,branch,0.366901493056,right,1,correct,arm2,2,arm22,bolt
180,15,bolt,0.217008441797,right,1,correct,arm2,3,arm23,bolt
181,16,lion,0.133644268507,space,1,correct,target,NaN,targetNaN,lion
182,16,coffeepot,0.733961462231,left,1,correct,path,1,path1,lion
183,16,mosquito,0.000262013847987,left,1,correct,path,2,path2,lion
184,16,canoe,0.0170813106247,right,1,correct,path,3,path3,lion
185,16,goose,8.8168188138,left,1,correct,decision,1,decision1,lion
186,16,sailor,0.700426104549,right,1,correct,arm1,1,arm11,lion
187,16,cooker,0.283585013533,right,1,correct,arm1,2,arm12,lion
188,16,tooth,0.183581753452,left,1,correct,arm1,3,arm13,lion
189,16,crutches,1.63360140449,left,1,correct,decision,2,decision2,lion
190,16,stapler,9.68343444613,right,1,correct,arm2,1,arm21,lion
191,16,rose,0.650254678667,right,1,correct,arm2,2,arm22,lion
192,16,lion,2.60032745694,left,1,correct,arm2,3,arm23,lion
193,17,bolt,1.90027867648,space,1,correct,target,NaN,targetNaN,bolt
194,17,coffeepot,0.58360445327,left,1,correct,path,1,path1,bolt
195,17,mosquito,0.114142046521,left,1,correct,path,2,path2,bolt
196,17,canoe,0.300292320519,right,1,correct,path,3,path3,bolt
197,17,domino,4.30021866686,left,1,correct,decision,1,decision1,bolt
198,17,ambulance,0.900451339984,right,1,correct,arm1,1,arm11,bolt
199,17,trunk,0.40026207422,left,1,correct,arm1,2,arm12,bolt
200,17,peach,0.21694897552,left,1,correct,arm1,3,arm13,bolt
201,17,garlic,1.16697556932,right,1,correct,decision,2,decision2,bolt
202,17,mug,0.900393986722,right,1,correct,arm2,1,arm21,bolt
203,17,branch,0.217025044056,right,1,correct,arm2,2,arm22,bolt
204,17,bolt,0.200289966017,right,1,correct,arm2,3,arm23,bolt
205,18,lion,1.1671995489,space,1,correct,target,NaN,targetNaN,lion
206,18,coffeepot,0.61690828489,left,1,correct,path,1,path1,lion
207,18,mosquito,0.0169017043577,left,1,correct,path,2,path2,lion
208,18,canoe,0.000250845055234,right,1,correct,path,3,path3,lion
209,18,goose,11.5501581441,right,1,correct,decision,1,decision1,lion
210,18,sailor,0.550270435722,right,1,correct,arm1,1,arm11,lion
211,18,cooker,0.216905507785,right,1,correct,arm1,2,arm12,lion
212,18,tooth,0.333567173649,left,1,correct,arm1,3,arm13,lion
213,18,crutches,1.58358332312,right,1,correct,decision,2,decision2,lion
214,18,stapler,0.766966755031,right,1,correct,arm2,1,arm21,lion
215,18,rose,0.466947919012,right,1,correct,arm2,2,arm22,lion
216,18,lion,1.70024076296,left,1,correct,arm2,3,arm23,lion
217,19,lion,1.36701619958,space,-1,miss,target,NaN,targetNaN,lion
218,19,coffeepot,0.633404894105,left,-1,miss,path,1,path1,lion
219,19,mosquito,0.00149209038182,left,-1,miss,path,2,path2,lion
220,19,canoe,0.0335878811957,right,-1,miss,path,3,path3,lion
221,19,domino,4.73370729672,right,-1,miss,decision,1,decision1,lion
222,19,ambulance,0.816928086858,right,-1,miss,arm1,1,arm11,lion
223,19,trunk,0.333727460923,left,-1,miss,arm1,2,arm12,lion
224,19,peach,0.233701863257,left,-1,miss,arm1,3,arm13,lion
225,19,garlic,2.86693318828,left,-1,miss,decision,2,decision2,lion
226,19,mug,0.78360252137,right,-1,miss,arm2,1,arm21,lion
227,19,branch,0.233877243494,right,-1,miss,arm2,2,arm22,lion
228,19,bolt,1.88357619924,right,-1,miss,arm2,3,arm23,lion
229,20,bolt,0.250450826823,space,-1,miss,target,NaN,targetNaN,bolt
230,20,coffeepot,0.683622504454,left,-1,miss,path,1,path1,bolt
231,20,mosquito,0.0336705906361,left,-1,miss,path,2,path2,bolt
232,20,canoe,0.113159192731,right,-1,miss,path,3,path3,bolt
233,20,goose,1.86739714598,right,-1,miss,decision,1,decision1,bolt
234,20,sailor,1.25027967262,right,-1,miss,arm1,1,arm11,bolt
235,20,cooker,0.166918517919,right,-1,miss,arm1,2,arm12,bolt
236,20,tooth,2.30026636062,left,-1,miss,arm1,3,arm13,bolt
237,20,crutches,1.60043823929,right,-1,miss,decision,2,decision2,bolt
238,20,stapler,7.65013544426,right,-1,miss,arm2,1,arm21,bolt
239,20,rose,0.366919302754,right,-1,miss,arm2,2,arm22,bolt
240,20,lion,1.36687342014,left,-1,miss,arm2,3,arm23,bolt
241,21,bolt,2.50026623988,space,1,correct,target,NaN,targetNaN,bolt
242,21,coffeepot,1.40025271658,left,1,correct,path,1,path1,bolt
243,21,mosquito,0.0335803347134,left,1,correct,path,2,path2,bolt
244,21,canoe,0.0168796686312,right,1,correct,path,3,path3,bolt
245,21,domino,1.41692591347,left,1,correct,decision,1,decision1,bolt
246,21,ambulance,0.516921023351,right,1,correct,arm1,1,arm11,bolt
247,21,trunk,0.68369464882,left,1,correct,arm1,2,arm12,bolt
248,21,peach,0.666941459224,left,1,correct,arm1,3,arm13,bolt
249,21,garlic,0.0336618367169,right,1,correct,decision,2,decision2,bolt
250,21,mug,0.783625462675,right,1,correct,arm2,1,arm21,bolt
251,21,branch,0.467350297422,right,1,correct,arm2,2,arm22,bolt
252,21,bolt,1.33377575841,right,1,correct,arm2,3,arm23,bolt
253,22,bolt,1.18365057737,space,1,correct,target,NaN,targetNaN,bolt
254,22,coffeepot,1.15024713219,left,1,correct,path,1,path1,bolt
255,22,mosquito,0.113992626182,left,1,correct,path,2,path2,bolt
256,22,canoe,0.100232371268,right,1,correct,path,3,path3,bolt
257,22,domino,2.41708378587,left,1,correct,decision,1,decision1,bolt
258,22,ambulance,0.817142708801,right,1,correct,arm1,1,arm11,bolt
259,22,trunk,0.500925198668,left,1,correct,arm1,2,arm12,bolt
260,22,peach,0.416921687442,left,1,correct,arm1,3,arm13,bolt
261,22,garlic,1.53366213858,left,1,correct,decision,2,decision2,bolt
262,22,mug,0.533708323045,right,1,correct,arm2,1,arm21,bolt
263,22,branch,0.183633069529,right,1,correct,arm2,2,arm22,bolt
264,22,bolt,0.200343998827,right,1,correct,arm2,3,arm23,bolt
265,23,lion,0.216995159988,space,1,correct,target,NaN,targetNaN,lion
266,23,coffeepot,1.93367336774,left,1,correct,path,1,path1,lion
267,23,mosquito,0.0170290889705,left,1,correct,path,2,path2,lion
268,23,canoe,0.0336678739027,right,1,correct,path,3,path3,lion
269,23,goose,3.50026563616,left,1,correct,decision,1,decision1,lion
270,23,sailor,1.10028821523,right,1,correct,arm1,1,arm11,lion
271,23,cooker,0.100900687696,right,1,correct,arm1,2,arm12,lion
272,23,tooth,0.400246075678,left,1,correct,arm1,3,arm13,lion
273,23,crutches,2.1337073571,right,1,correct,decision,2,decision2,lion
274,23,stapler,1.35028474385,right,1,correct,arm2,1,arm21,lion
275,23,rose,0.366940734762,right,1,correct,arm2,2,arm22,lion
276,23,lion,0.833664976053,left,1,correct,arm2,3,arm23,lion
277,24,bolt,0.683568773504,space,-1,miss,target,NaN,targetNaN,bolt
278,24,coffeepot,0.650283657158,left,-1,miss,path,1,path1,bolt
279,24,mosquito,0.0168992894837,left,-1,miss,path,2,path2,bolt
280,24,canoe,0.114338556907,right,-1,miss,path,3,path3,bolt
281,24,goose,4.60022210805,left,-1,miss,decision,1,decision1,bolt
282,24,sailor,0.516922834507,right,-1,miss,arm1,1,arm11,bolt
283,24,cooker,0.134694436915,right,-1,miss,arm1,2,arm12,bolt
284,24,tooth,0.400291354569,left,-1,miss,arm1,3,arm13,bolt
285,24,crutches,2.46696935102,right,-1,miss,decision,2,decision2,bolt
286,24,stapler,0.616928811321,right,-1,miss,arm2,1,arm21,bolt
287,24,rose,0.383603970295,right,-1,miss,arm2,2,arm22,bolt
288,24,lion,0.366930773405,left,-1,miss,arm2,3,arm23,bolt
289,25,lion,0.100519137576,space,-1,miss,target,NaN,targetNaN,lion
290,25,coffeepot,1.13362253464,left,-1,miss,path,1,path1,lion
291,25,mosquito,0.0335685622022,left,-1,miss,path,2,path2,lion
292,25,canoe,0.0169225326476,right,-1,miss,path,3,path3,lion
293,25,domino,0.516981697065,left,-1,miss,decision,1,decision1,lion
294,25,ambulance,0.750284804223,right,-1,miss,arm1,1,arm11,lion
295,25,trunk,0.117162752256,left,-1,miss,arm1,2,arm12,lion
296,25,peach,0.267037993819,left,-1,miss,arm1,3,arm13,lion
297,25,garlic,1.95030520991,left,-1,miss,decision,2,decision2,lion
298,25,mug,0.93362416468,right,-1,miss,arm2,1,arm21,lion
299,25,branch,0.417114877376,right,-1,miss,arm2,2,arm22,lion
300,25,bolt,0.966933429767,right,-1,miss,arm2,3,arm23,lion
301,26,lion,0.88370116898,space,1,correct,target,NaN,targetNaN,lion
302,26,coffeepot,0.716908224518,left,1,correct,path,1,path1,lion
303,26,mosquito,0.000277106811609,left,1,correct,path,2,path2,lion
304,26,canoe,0.0168974783282,right,1,correct,path,3,path3,lion
305,26,goose,10.7668206551,left,1,correct,decision,1,decision1,lion
306,26,sailor,1.68362793792,right,1,correct,arm1,1,arm11,lion
307,26,cooker,0.650522125983,right,1,correct,arm1,2,arm12,lion
308,26,tooth,0.216921808185,left,1,correct,arm1,3,arm13,lion
309,26,crutches,3.50030487786,left,1,correct,decision,2,decision2,lion
310,26,stapler,0.833596755858,right,1,correct,arm2,1,arm21,lion
311,26,rose,0.216914261704,right,1,correct,arm2,2,arm22,lion
312,26,lion,0.650286373891,left,1,correct,arm2,3,arm23,lion
313,27,lion,1.23392855957,space,-1,miss,target,NaN,targetNaN,lion
314,27,coffeepot,3.73355304664,left,-1,miss,path,1,path1,lion
315,27,mosquito,0.0335655436093,left,-1,miss,path,2,path2,lion
316,27,canoe,0.133865833213,right,-1,miss,path,3,path3,lion
317,27,domino,4.06694695306,left,-1,miss,decision,1,decision1,lion
318,27,ambulance,1.28356569454,right,-1,miss,arm1,1,arm11,lion
319,27,trunk,2.73356602658,left,-1,miss,arm1,2,arm12,lion
320,27,peach,0.433632918599,left,-1,miss,arm1,3,arm13,lion
321,27,garlic,21.0500422301,left,-1,miss,decision,2,decision2,lion
322,27,mug,0.650268564194,right,-1,miss,arm2,1,arm21,lion
323,27,branch,0.133557936756,right,-1,miss,arm2,2,arm22,lion
324,27,bolt,0.550274661752,right,-1,miss,arm2,3,arm23,lion
325,28,lion,4.03362289687,space,0,wrong,target,NaN,targetNaN,lion
326,28,coffeepot,0.900256037035,left,0,wrong,path,1,path1,lion
327,28,mosquito,0.0169128731509,left,0,wrong,path,2,path2,lion
328,28,canoe,0.033392880106,right,0,wrong,path,3,path3,lion
329,28,domino,2.00030065184,right,0,wrong,decision,1,decision1,lion
330,28,ambulance,3.30025639927,right,0,wrong,arm1,1,arm11,lion
331,28,trunk,0.55025443718,left,0,wrong,arm1,2,arm12,lion
332,28,peach,0.450249969663,left,0,wrong,arm1,3,arm13,lion
333,28,crutches,12.1504125511,right,0,wrong,decision,2,decision2,lion
334,28,stapler,0.783587126547,right,0,wrong,arm2,1,arm21,lion
335,28,rose,3.3668900224,right,0,wrong,arm2,2,arm22,lion
336,28,lion,2.13359476359,left,0,wrong,arm2,3,arm23,lion
337,29,lion,1.08372248024,space,-1,miss,target,NaN,targetNaN,lion
338,29,coffeepot,0.750536252997,left,-1,miss,path,1,path1,lion
339,29,mosquito,0.0502360237651,left,-1,miss,path,2,path2,lion
340,29,canoe,0.116916736949,right,-1,miss,path,3,path3,lion
341,29,domino,1.75033159241,right,-1,miss,decision,1,decision1,lion
342,29,ambulance,5.25019998177,right,-1,miss,arm1,1,arm11,lion
343,29,trunk,0.150239283845,left,-1,miss,arm1,2,arm12,lion
344,29,peach,0.333589209376,left,-1,miss,arm1,3,arm13,lion
345,29,garlic,1.68458030392,right,-1,miss,decision,2,decision2,lion
346,29,mug,7.0666176246,right,-1,miss,arm2,1,arm21,lion
347,29,branch,0.400259659345,right,-1,miss,arm2,2,arm22,lion
348,29,bolt,0.633736939304,right,-1,miss,arm2,3,arm23,lion
349,30,lion,1.13363279786,space,0,wrong,target,NaN,targetNaN,lion
350,30,coffeepot,0.566934274973,left,0,wrong,path,1,path1,lion
351,30,mosquito,0.0169889416875,left,0,wrong,path,2,path2,lion
352,30,canoe,0.0334393664339,right,0,wrong,path,3,path3,lion
353,30,domino,0.600865068302,right,0,wrong,decision,1,decision1,lion
354,30,ambulance,1.33360641536,right,0,wrong,arm1,1,arm11,lion
355,30,trunk,0.217547864315,left,0,wrong,arm1,2,arm12,lion
356,30,peach,0.233611909193,left,0,wrong,arm1,3,arm13,lion
357,30,crutches,5.18399650809,left,0,wrong,decision,2,decision2,lion
358,30,stapler,0.850267236014,right,0,wrong,arm2,1,arm21,lion
359,30,rose,0.43362024051,right,0,wrong,arm2,2,arm22,lion
360,30,lion,1.50024963762,left,0,wrong,arm2,3,arm23,lion
361,31,bolt,0.667249053822,space,-1,miss,target,NaN,targetNaN,bolt
362,31,coffeepot,0.666950816862,left,-1,miss,path,1,path1,bolt
363,31,mosquito,0.833715386552,left,-1,miss,path,2,path2,bolt
364,31,canoe,0.86706993053,right,-1,miss,path,3,path3,bolt
365,31,goose,13.4834623379,left,-1,miss,decision,1,decision1,bolt
366,31,sailor,0.833577738724,right,-1,miss,arm1,1,arm11,bolt
367,31,cooker,0.366896059589,right,-1,miss,arm1,2,arm12,bolt
368,31,tooth,0.316897900931,left,-1,miss,arm1,3,arm13,bolt
369,31,crutches,5.88356321929,right,-1,miss,decision,2,decision2,bolt
370,31,stapler,0.766970981061,right,-1,miss,arm2,1,arm21,bolt
371,31,rose,0.316930501732,right,-1,miss,arm2,2,arm22,bolt
372,31,lion,1.41691565026,left,-1,miss,arm2,3,arm23,bolt
373,32,bolt,4.21704738164,space,0,wrong,target,NaN,targetNaN,bolt
374,32,coffeepot,1.86696337421,left,0,wrong,path,1,path1,bolt
375,32,mosquito,0.100341946183,left,0,wrong,path,2,path2,bolt
376,32,canoe,0.367146602785,right,0,wrong,path,3,path3,bolt
377,32,goose,2.2836393482,right,0,wrong,decision,1,decision1,bolt
378,32,sailor,0.550351032147,right,0,wrong,arm1,1,arm11,bolt
379,32,cooker,0.233598929245,right,0,wrong,arm1,2,arm12,bolt
380,32,tooth,0.183608920787,left,0,wrong,arm1,3,arm13,bolt
381,32,garlic,2.45033811257,left,0,wrong,decision,2,decision2,bolt
382,32,mug,0.500276201234,right,0,wrong,arm2,1,arm21,bolt
383,32,branch,0.15024562289,right,0,wrong,arm2,2,arm22,bolt
384,32,bolt,0.216912752408,right,0,wrong,arm2,3,arm23,bolt
385,33,bolt,0.516907741543,space,0,wrong,target,NaN,targetNaN,bolt
386,33,coffeepot,0.433647709703,left,0,wrong,path,1,path1,bolt
387,33,mosquito,0.0669391047218,left,0,wrong,path,2,path2,bolt
388,33,canoe,0.0336434233018,right,0,wrong,path,3,path3,bolt
389,33,goose,0.683617372847,left,0,wrong,decision,1,decision1,bolt
390,33,sailor,0.433608467998,right,0,wrong,arm1,1,arm11,bolt
391,33,cooker,0.183576319986,right,0,wrong,arm1,2,arm12,bolt
392,33,tooth,0.116930018758,left,0,wrong,arm1,3,arm13,bolt
393,33,garlic,5.20026521356,left,0,wrong,decision,2,decision2,bolt
394,33,mug,0.61672173586,right,0,wrong,arm2,1,arm21,bolt
395,33,branch,0.250170701418,right,0,wrong,arm2,2,arm22,bolt
396,33,bolt,0.383644419437,right,0,wrong,arm2,3,arm23,bolt
397,34,bolt,3.25026971126,space,-1,miss,target,NaN,targetNaN,bolt
398,34,coffeepot,0.616991899908,left,-1,miss,path,1,path1,bolt
399,34,mosquito,0.0669264266321,left,-1,miss,path,2,path2,bolt
400,34,canoe,0.0669375954253,right,-1,miss,path,3,path3,bolt
401,34,goose,6.70019518221,left,-1,miss,decision,1,decision1,bolt
402,34,sailor,0.400056206196,right,-1,miss,arm1,1,arm11,bolt
403,34,cooker,0.183571188377,right,-1,miss,arm1,2,arm12,bolt
404,34,tooth,0.166913688171,left,-1,miss,arm1,3,arm13,bolt
405,34,crutches,0.0169798859092,left,-1,miss,decision,2,decision2,bolt
406,34,stapler,1.03362983963,right,-1,miss,arm2,1,arm21,bolt
407,34,rose,0.166958967062,right,-1,miss,arm2,2,arm22,bolt
408,34,lion,0.866939829184,left,-1,miss,arm2,3,arm23,bolt
409,35,lion,0.983651603688,space,-1,miss,target,NaN,targetNaN,lion
410,35,coffeepot,0.833621810178,left,-1,miss,path,1,path1,lion
411,35,mosquito,0.433597299205,left,-1,miss,path,2,path2,lion
412,35,canoe,0.233611003615,right,-1,miss,path,3,path3,lion
413,35,domino,1.03362168943,left,-1,miss,decision,1,decision1,lion
414,35,ambulance,0.500407811876,right,-1,miss,arm1,1,arm11,lion
415,35,trunk,0.633586009668,left,-1,miss,arm1,2,arm12,lion
416,35,peach,0.450700947415,left,-1,miss,arm1,3,arm13,lion
417,35,garlic,7.51684887899,right,-1,miss,decision,2,decision2,lion
418,35,mug,0.600255010713,right,-1,miss,arm2,1,arm21,lion
419,35,branch,0.216915771,right,-1,miss,arm2,2,arm22,lion
420,35,bolt,0.350261500687,right,-1,miss,arm2,3,arm23,lion
421,36,bolt,0.750318310602,space,0,wrong,target,NaN,targetNaN,bolt
422,36,coffeepot,1.3335445342,left,0,wrong,path,1,path1,bolt
423,36,mosquito,0.0502586632101,left,0,wrong,path,2,path2,bolt
424,36,canoe,0.133680189761,right,0,wrong,path,3,path3,bolt
425,36,goose,2.65099423388,left,0,wrong,decision,1,decision1,bolt
426,36,sailor,0.600265877647,right,0,wrong,arm1,1,arm11,bolt
427,36,cooker,0.217098999578,right,0,wrong,arm1,2,arm12,bolt
428,36,tooth,0.116903757001,left,0,wrong,arm1,3,arm13,bolt
429,36,garlic,6.36690239863,right,0,wrong,decision,2,decision2,bolt
430,36,mug,1.8171427088,right,0,wrong,arm2,1,arm21,bolt
431,36,branch,0.417006509897,right,0,wrong,arm2,2,arm22,bolt
432,36,bolt,1.40020804141,right,0,wrong,arm2,3,arm23,bolt
433,37,lion,6.45021767072,space,-1,miss,target,NaN,targetNaN,lion
434,37,coffeepot,0.866923226924,left,-1,miss,path,1,path1,lion
435,37,mosquito,0.0335718826541,left,-1,miss,path,2,path2,lion
436,37,canoe,0.100228145238,right,-1,miss,path,3,path3,lion
437,37,domino,1.16701390545,left,-1,miss,decision,1,decision1,lion
438,37,ambulance,1.18363427697,right,-1,miss,arm1,1,arm11,lion
439,37,trunk,0.700241366674,left,-1,miss,arm1,2,arm12,lion
440,37,peach,2.3668996819,left,-1,miss,arm1,3,arm13,lion
441,37,garlic,3.61697409021,right,-1,miss,decision,2,decision2,lion
442,37,mug,0.650252565653,right,-1,miss,arm2,1,arm21,lion
443,37,branch,0.0835857379948,right,-1,miss,arm2,2,arm22,lion
444,37,bolt,0.183577225563,right,-1,miss,arm2,3,arm23,lion
445,38,lion,0.633650909411,space,1,correct,target,NaN,targetNaN,lion
446,38,coffeepot,0.666913386312,left,1,correct,path,1,path1,lion
447,38,mosquito,0.0171027426331,left,1,correct,path,2,path2,lion
448,38,canoe,0.150249848919,right,1,correct,path,3,path3,lion
449,38,goose,0.66693481832,left,1,correct,decision,1,decision1,lion
450,38,sailor,2.46693403349,right,1,correct,arm1,1,arm11,lion
451,38,cooker,0.38358102899,right,1,correct,arm1,2,arm12,lion
452,38,tooth,0.666955948469,left,1,correct,arm1,3,arm13,lion
453,38,crutches,5.21686505864,right,1,correct,decision,2,decision2,lion
454,38,stapler,1.55024719256,right,1,correct,arm2,1,arm21,lion
455,38,rose,0.283392729176,right,1,correct,arm2,2,arm22,lion
456,38,lion,1.20025887451,left,1,correct,arm2,3,arm23,lion
457,39,bolt,2.66695474103,space,0,wrong,target,NaN,targetNaN,bolt
458,39,coffeepot,2.38354027799,left,0,wrong,path,1,path1,bolt
459,39,mosquito,0.0669194838692,left,0,wrong,path,2,path2,bolt
460,39,canoe,0.183608015209,right,0,wrong,path,3,path3,bolt
461,39,goose,3.90027173372,left,0,wrong,decision,1,decision1,bolt
462,39,sailor,2.65022449274,right,0,wrong,arm1,1,arm11,bolt
463,39,cooker,0.466933127908,right,0,wrong,arm1,2,arm12,bolt
464,39,tooth,0.183573905111,left,0,wrong,arm1,3,arm13,bolt
465,39,garlic,1.50083947064,right,0,wrong,decision,2,decision2,bolt
466,39,mug,1.13377799217,right,0,wrong,arm2,1,arm21,bolt
467,39,branch,0.250225337947,right,0,wrong,arm2,2,arm22,bolt
468,39,bolt,0.500260202693,right,0,wrong,arm2,3,arm23,bolt
469,40,bolt,0.71700270647,space,-1,miss,target,NaN,targetNaN,bolt
470,40,coffeepot,0.83359585028,left,-1,miss,path,1,path1,bolt
471,40,mosquito,0.900284713665,left,-1,miss,path,2,path2,bolt
472,40,canoe,0.300234967257,right,-1,miss,path,3,path3,bolt
473,40,goose,4.38360457401,right,-1,miss,decision,1,decision1,bolt
474,40,sailor,0.616936659662,right,-1,miss,arm1,1,arm11,bolt
475,40,cooker,1.75024194021,right,-1,miss,arm1,2,arm12,bolt
476,40,tooth,13.3334579006,left,-1,miss,arm1,3,arm13,bolt
477,40,crutches,42.5997321905,left,-1,miss,decision,2,decision2,bolt
478,40,stapler,0.21691969517,right,-1,miss,arm2,1,arm21,bolt
479,40,rose,0.200235631347,right,-1,miss,arm2,2,arm22,bolt
480,40,lion,0.433571943026,left,-1,miss,arm2,3,arm23,bolt
481,41,bolt,1.15037964841,space,0,wrong,target,NaN,targetNaN,bolt
482,41,coffeepot,3.15024018942,left,0,wrong,path,1,path1,bolt
483,41,mosquito,0.0336307452121,left,0,wrong,path,2,path2,bolt
484,41,canoe,0.0669342749729,right,0,wrong,path,3,path3,bolt
485,41,goose,1.4003133903,right,0,wrong,decision,1,decision1,bolt
486,41,sailor,0.733709711597,right,0,wrong,arm1,1,arm11,bolt
487,41,cooker,0.100336512716,right,0,wrong,arm1,2,arm12,bolt
488,41,tooth,0.150288788766,left,0,wrong,arm1,3,arm13,bolt
489,41,garlic,2.5836101886,left,0,wrong,decision,2,decision2,bolt
490,41,mug,0.71701538456,right,0,wrong,arm2,1,arm21,bolt
491,41,branch,0.15027852555,right,0,wrong,arm2,2,arm22,bolt
492,41,bolt,0.383825535,right,0,wrong,arm2,3,arm23,bolt
493,42,bolt,0.883725015863,space,1,correct,target,NaN,targetNaN,bolt
494,42,coffeepot,0.500295218368,left,1,correct,path,1,path1,bolt
495,42,mosquito,0.0336129355151,left,1,correct,path,2,path2,bolt
496,42,canoe,0.0335797309949,right,1,correct,path,3,path3,bolt
497,42,domino,11.2167983477,left,1,correct,decision,1,decision1,bolt
498,42,ambulance,1.13361830861,right,1,correct,arm1,1,arm11,bolt
499,42,trunk,1.11691703881,left,1,correct,arm1,2,arm12,bolt
500,42,peach,0.283592560014,left,1,correct,arm1,3,arm13,bolt
501,42,garlic,4.45022853765,right,1,correct,decision,2,decision2,bolt
502,42,mug,0.800256701125,right,1,correct,arm2,1,arm21,bolt
503,42,branch,0.183578433,right,1,correct,arm2,2,arm22,bolt
504,42,bolt,0.883594612657,right,1,correct,arm2,3,arm23,bolt
505,43,lion,1.01719360227,space,0,wrong,target,NaN,targetNaN,lion
506,43,coffeepot,0.583636148493,left,0,wrong,path,1,path1,lion
507,43,mosquito,0.0335945220995,left,0,wrong,path,2,path2,lion
508,43,canoe,0.0669022778902,right,0,wrong,path,3,path3,lion
509,43,domino,1.76694139885,right,0,wrong,decision,1,decision1,lion
510,43,ambulance,0.616988881316,right,0,wrong,arm1,1,arm11,lion
511,43,trunk,0.116925189009,left,0,wrong,arm1,2,arm12,lion
512,43,peach,0.13360985655,left,0,wrong,arm1,3,arm13,lion
513,43,crutches,2.40032184236,right,0,wrong,decision,2,decision2,lion
514,43,stapler,0.800232854242,right,0,wrong,arm2,1,arm21,lion
515,43,rose,0.116927302024,right,0,wrong,arm2,2,arm22,lion
516,43,lion,0.700324981693,left,0,wrong,arm2,3,arm23,lion
517,44,bolt,1.05028039708,space,-1,miss,target,NaN,targetNaN,bolt
518,44,coffeepot,0.533694437519,left,-1,miss,path,1,path1,bolt
519,44,mosquito,0.0335703733576,left,-1,miss,path,2,path2,bolt
520,44,canoe,0.0335878811952,right,-1,miss,path,3,path3,bolt
521,44,domino,1.15004277346,right,-1,miss,decision,1,decision1,bolt
522,44,ambulance,0.850213505063,right,-1,miss,arm1,1,arm11,bolt
523,44,trunk,0.30032522318,left,-1,miss,arm1,2,arm12,bolt
524,44,peach,0.266928418903,left,-1,miss,arm1,3,arm13,bolt
525,44,crutches,4.63359506545,left,-1,miss,decision,2,decision2,bolt
526,44,stapler,0.600266481365,right,-1,miss,arm2,1,arm21,bolt
527,44,rose,0.050303036523,right,-1,miss,arm2,2,arm22,bolt
528,44,lion,0.500271069626,left,-1,miss,arm2,3,arm23,bolt
529,45,bolt,3.45027351469,space,0,wrong,target,NaN,targetNaN,bolt
530,45,coffeepot,2.983837549,left,0,wrong,path,1,path1,bolt
531,45,mosquito,0.0335712789356,left,0,wrong,path,2,path2,bolt
532,45,canoe,0.0335851644622,right,0,wrong,path,3,path3,bolt
533,45,goose,42.6830559146,left,0,wrong,decision,1,decision1,bolt
534,45,sailor,0.283575354036,right,0,wrong,arm1,1,arm11,bolt
535,45,cooker,0.133603517505,right,0,wrong,arm1,2,arm12,bolt
536,45,tooth,0.0835818138244,left,0,wrong,arm1,3,arm13,bolt
537,45,garlic,0.0837448178308,right,0,wrong,decision,2,decision2,bolt
538,45,mug,0.866932886421,right,0,wrong,arm2,1,arm21,bolt
539,45,branch,0.100264066491,right,0,wrong,arm2,2,arm22,bolt
540,45,bolt,0.20026400612,right,0,wrong,arm2,3,arm23,bolt
541,46,bolt,1.33367252254,space,-1,miss,target,NaN,targetNaN,bolt
542,46,coffeepot,0.650277619972,left,-1,miss,path,1,path1,bolt
543,46,mosquito,0.0169116657139,left,-1,miss,path,2,path2,bolt
544,46,canoe,0.133572426001,right,-1,miss,path,3,path3,bolt
545,46,domino,0.400309767985,right,-1,miss,decision,1,decision1,bolt
546,46,ambulance,0.783383371539,right,-1,miss,arm1,1,arm11,bolt
547,46,trunk,0.0335667510462,left,-1,miss,arm1,2,arm12,bolt
548,46,peach,0.366944357073,left,-1,miss,arm1,3,arm13,bolt
549,46,crutches,1.66693512018,right,-1,miss,decision,2,decision2,bolt
550,46,stapler,0.800302885594,right,-1,miss,arm2,1,arm21,bolt
551,46,rose,0.0336802501329,right,-1,miss,arm2,2,arm22,bolt
552,46,lion,0.483596061581,left,-1,miss,arm2,3,arm23,bolt
553,47,lion,0.166957759624,space,0,wrong,target,NaN,targetNaN,lion
554,47,coffeepot,0.700440895653,left,0,wrong,path,1,path1,lion
555,47,mosquito,0.167005755249,left,0,wrong,path,2,path2,lion
556,47,canoe,0.101109574312,right,0,wrong,path,3,path3,lion
557,47,domino,0.71681223327,left,0,wrong,decision,1,decision1,lion
558,47,ambulance,0.484303921575,right,0,wrong,arm1,1,arm11,lion
559,47,trunk,0.0170194294737,left,0,wrong,arm1,2,arm12,lion
560,47,peach,0.101124667276,left,0,wrong,arm1,3,arm13,lion
561,47,crutches,0.533748772187,right,0,wrong,decision,2,decision2,lion
562,47,stapler,0.750379588035,right,0,wrong,arm2,1,arm21,lion
563,47,rose,0.0336117280776,right,0,wrong,arm2,2,arm22,lion
564,47,lion,0.383678227675,left,0,wrong,arm2,3,arm23,lion
565,48,lion,0.316954650474,space,1,correct,target,NaN,targetNaN,lion
566,48,coffeepot,0.500283747716,left,1,correct,path,1,path1,lion
567,48,mosquito,0.017409129794,left,1,correct,path,2,path2,lion
568,48,canoe,0.113624659729,right,1,correct,path,3,path3,lion
569,48,goose,0.616967449307,right,1,correct,decision,1,decision1,lion
570,48,sailor,0.584427623504,right,1,correct,arm1,1,arm11,lion
571,48,cooker,0.316932312888,right,1,correct,arm1,2,arm12,lion
572,48,tooth,0.0502348163277,left,1,correct,arm1,3,arm13,lion
573,48,crutches,1.36715414927,left,1,correct,decision,2,decision2,lion
574,48,stapler,0.550321751798,right,1,correct,arm2,1,arm21,lion
575,48,rose,0.0669849873307,right,1,correct,arm2,2,arm22,lion
576,48,lion,1.23360345713,left,1,correct,arm2,3,arm23,lion
577,49,bolt,0.183705515754,space,0,wrong,target,NaN,targetNaN,bolt
578,49,coffeepot,0.53366485531,left,0,wrong,path,1,path1,bolt
579,49,mosquito,0.650221172289,left,0,wrong,path,2,path2,bolt
580,49,canoe,0.113771061476,right,0,wrong,path,3,path3,bolt
581,49,goose,0.450259931019,left,0,wrong,decision,1,decision1,bolt
582,49,sailor,0.083659391657,right,0,wrong,arm1,1,arm11,bolt
583,49,cooker,0.283649611416,right,0,wrong,arm1,2,arm12,bolt
584,49,tooth,0.100232974986,left,0,wrong,arm1,3,arm13,bolt
585,49,garlic,0.933648313422,left,0,wrong,decision,2,decision2,bolt
586,49,mug,0.266962529001,right,0,wrong,arm2,1,arm21,bolt
587,49,branch,0.183601374305,right,0,wrong,arm2,2,arm22,bolt
588,49,bolt,0.216926034215,right,0,wrong,arm2,3,arm23,bolt
589,50,lion,0.217036514709,space,0,wrong,target,NaN,targetNaN,lion
590,50,coffeepot,0.300263643888,left,0,wrong,path,1,path1,lion
591,50,mosquito,0.200207256576,left,0,wrong,path,2,path2,lion
592,50,canoe,0.117284401543,right,0,wrong,path,3,path3,lion
593,50,domino,0.200361506664,right,0,wrong,decision,1,decision1,lion
594,50,ambulance,0.650592459193,right,0,wrong,arm1,1,arm11,lion
595,50,trunk,0.700272458179,left,0,wrong,arm1,2,arm12,lion
596,50,peach,0.40046945154,left,0,wrong,arm1,3,arm13,lion
597,50,crutches,0.86701167169,left,0,wrong,decision,2,decision2,lion
598,50,stapler,0.38381285691,right,0,wrong,arm2,1,arm21,lion
599,50,rose,0.150433077497,right,0,wrong,arm2,2,arm22,lion
600,50,lion,0.56691495598,left,0,wrong,arm2,3,arm23,lion
